"","subID","Session","critRT","Trial","Congruency","ACC","RT","block","BlockType","Valence","Feedback"
"1",1,5,1209,1,"congruent",1,1119,0,"Baseline","None","None"
"2",1,5,1209,2,"incongruent",1,569,0,"Baseline","None","None"
"3",1,5,1209,3,"congruent",0,1571,0,"Baseline","None","None"
"4",1,5,1209,4,"incongruent",1,1575,0,"Baseline","None","None"
"5",1,5,1209,5,"congruent",0,0,0,"Baseline","None","None"
"6",1,5,1209,6,"congruent",1,1372,0,"Baseline","None","None"
"7",1,5,1209,7,"congruent",1,935,0,"Baseline","None","None"
"8",1,5,1209,8,"incongruent",0,1191,0,"Baseline","None","None"
"9",1,5,1209,9,"incongruent",1,1879,0,"Baseline","None","None"
"10",1,5,1209,10,"incongruent",0,0,0,"Baseline","None","None"
"11",1,5,1209,11,"congruent",1,1685,0,"Baseline","None","None"
"12",1,5,1209,12,"congruent",0,0,0,"Baseline","None","None"
"13",1,5,1209,13,"congruent",0,0,0,"Baseline","None","None"
"14",1,5,1209,14,"congruent",1,766,0,"Baseline","None","None"
"15",1,5,1209,15,"congruent",1,1952,0,"Baseline","None","None"
"16",1,5,1209,16,"incongruent",1,1056,0,"Baseline","None","None"
"17",1,5,1209,17,"incongruent",1,1304,0,"Baseline","None","None"
"18",1,5,1209,18,"incongruent",1,1439,0,"Baseline","None","None"
"19",1,5,1209,19,"congruent",0,0,0,"Baseline","None","None"
"20",1,5,1209,20,"congruent",1,1020,0,"Baseline","None","None"
"21",1,5,1209,21,"congruent",1,1586,0,"Baseline","None","None"
"22",1,5,1209,22,"incongruent",1,1255,0,"Baseline","None","None"
"23",1,5,1209,23,"congruent",0,1028,0,"Baseline","None","None"
"24",1,5,1209,24,"incongruent",1,668,0,"Baseline","None","None"
"25",1,5,1209,25,"congruent",1,1186,0,"Baseline","None","None"
"26",1,5,1209,26,"incongruent",1,1178,0,"Baseline","None","None"
"27",1,5,1209,27,"incongruent",1,954,0,"Baseline","None","None"
"28",1,5,1209,28,"congruent",0,1991,0,"Baseline","None","None"
"29",1,5,1209,29,"incongruent",1,1514,0,"Baseline","None","None"
"30",1,5,1209,30,"congruent",1,1182,0,"Baseline","None","None"
"31",1,5,1209,31,"incongruent",1,1980,0,"Baseline","None","None"
"32",1,5,1209,32,"incongruent",1,1757,0,"Baseline","None","None"
"33",1,5,1209,33,"incongruent",1,1787,0,"Baseline","None","None"
"34",1,5,1209,34,"incongruent",1,1259,0,"Baseline","None","None"
"35",1,5,1209,35,"congruent",1,1004,0,"Baseline","None","None"
"36",1,5,1209,36,"congruent",1,1156,0,"Baseline","None","None"
"37",1,5,1209,37,"congruent",1,1619,0,"Baseline","None","None"
"38",1,5,1209,38,"incongruent",1,1813,0,"Baseline","None","None"
"39",1,5,1209,39,"congruent",0,1789,0,"Baseline","None","None"
"40",1,5,1209,40,"congruent",1,1363,0,"Baseline","None","None"
"41",1,5,1209,41,"incongruent",1,1364,0,"Baseline","None","None"
"42",1,5,1209,42,"incongruent",1,1122,0,"Baseline","None","None"
"43",1,5,1209,43,"congruent",1,1355,0,"Baseline","None","None"
"44",1,5,1209,44,"congruent",1,1724,0,"Baseline","None","None"
"45",1,5,1209,45,"incongruent",0,1897,0,"Baseline","None","None"
"46",1,5,1209,46,"congruent",1,1661,0,"Baseline","None","None"
"47",1,5,1209,47,"incongruent",0,1385,0,"Baseline","None","None"
"48",1,5,1209,48,"incongruent",1,1879,0,"Baseline","None","None"
"49",1,5,1209,49,"congruent",1,962,0,"Baseline","None","None"
"50",1,5,1209,50,"incongruent",1,1128,0,"Baseline","None","None"
"51",1,5,1209,51,"incongruent",1,993,0,"Baseline","None","None"
"52",1,5,1209,52,"congruent",1,1194,0,"Baseline","None","None"
"53",1,5,1209,53,"congruent",1,1444,0,"Baseline","None","None"
"54",1,5,1209,54,"incongruent",1,1807,0,"Baseline","None","None"
"55",1,5,1209,55,"incongruent",1,653,0,"Baseline","None","None"
"56",1,5,1209,56,"incongruent",0,0,0,"Baseline","None","None"
"57",1,5,1209,57,"incongruent",1,728,0,"Baseline","None","None"
"58",1,5,1209,58,"congruent",1,1010,0,"Baseline","None","None"
"59",1,5,1209,59,"congruent",1,1319,0,"Baseline","None","None"
"60",1,5,1209,60,"incongruent",1,1819,0,"Baseline","None","None"
"61",1,5,1209,61,"incongruent",1,1030,0,"Baseline","None","None"
"62",1,5,1209,62,"incongruent",1,1870,0,"Baseline","None","None"
"63",1,5,1209,63,"incongruent",1,1165,0,"Baseline","None","None"
"64",1,5,1209,64,"incongruent",1,1337,0,"Baseline","None","None"
"65",1,5,1209,65,"incongruent",1,1402,0,"Baseline","None","None"
"66",1,5,1209,66,"incongruent",1,1643,0,"Baseline","None","None"
"67",1,5,1209,67,"incongruent",1,1731,0,"Baseline","None","None"
"68",1,5,1209,68,"congruent",0,0,0,"Baseline","None","None"
"69",1,5,1209,69,"congruent",1,1517,0,"Baseline","None","None"
"70",1,5,1209,70,"incongruent",1,1704,0,"Baseline","None","None"
"71",1,5,1209,71,"congruent",1,1387,0,"Baseline","None","None"
"72",1,5,1209,72,"congruent",1,1095,0,"Baseline","None","None"
"73",1,5,1209,73,"incongruent",1,1415,0,"Baseline","None","None"
"74",1,5,1209,74,"congruent",1,1447,0,"Baseline","None","None"
"75",1,5,1209,75,"incongruent",0,1236,0,"Baseline","None","None"
"76",1,5,1209,76,"congruent",0,0,0,"Baseline","None","None"
"77",1,5,1209,77,"incongruent",1,774,0,"Baseline","None","None"
"78",1,5,1209,78,"incongruent",1,1465,0,"Baseline","None","None"
"79",1,5,1209,79,"incongruent",0,1371,0,"Baseline","None","None"
"80",1,5,1209,80,"congruent",0,0,0,"Baseline","None","None"
"81",1,5,1209,81,"congruent",1,446,0,"Baseline","None","None"
"82",1,5,1209,82,"incongruent",1,757,0,"Baseline","None","None"
"83",1,5,1209,83,"congruent",1,1547,0,"Baseline","None","None"
"84",1,5,1209,84,"congruent",1,825,0,"Baseline","None","None"
"85",1,5,1209,85,"congruent",0,0,0,"Baseline","None","None"
"86",1,5,1209,86,"congruent",0,1886,0,"Baseline","None","None"
"87",1,5,1209,87,"incongruent",1,1718,0,"Baseline","None","None"
"88",1,5,1209,88,"congruent",1,1973,0,"Baseline","None","None"
"89",1,5,1209,89,"incongruent",0,1164,0,"Baseline","None","None"
"90",1,5,1209,90,"incongruent",1,1209,0,"Baseline","None","None"
"91",1,5,1209,91,"congruent",1,1764,0,"Baseline","None","None"
"92",1,5,1209,92,"incongruent",1,1757,0,"Baseline","None","None"
"93",1,5,1209,93,"congruent",1,1373,0,"Baseline","None","None"
"94",1,5,1209,94,"congruent",1,1276,0,"Baseline","None","None"
"95",1,5,1209,95,"congruent",1,1875,0,"Baseline","None","None"
"96",1,5,1209,96,"congruent",0,1118,0,"Baseline","None","None"
"97",2,5,763,1,"congruent",1,491,0,"Baseline","None","None"
"98",2,5,763,2,"incongruent",1,692,0,"Baseline","None","None"
"99",2,5,763,3,"congruent",1,614,0,"Baseline","None","None"
"100",2,5,763,4,"incongruent",1,1162,0,"Baseline","None","None"
"101",2,5,763,5,"congruent",1,1333,0,"Baseline","None","None"
"102",2,5,763,6,"congruent",1,613,0,"Baseline","None","None"
"103",2,5,763,7,"congruent",1,544,0,"Baseline","None","None"
"104",2,5,763,8,"incongruent",1,1390,0,"Baseline","None","None"
"105",2,5,763,9,"incongruent",1,763,0,"Baseline","None","None"
"106",2,5,763,10,"incongruent",1,1003,0,"Baseline","None","None"
"107",2,5,763,11,"congruent",1,509,0,"Baseline","None","None"
"108",2,5,763,12,"congruent",1,430,0,"Baseline","None","None"
"109",2,5,763,13,"congruent",1,1123,0,"Baseline","None","None"
"110",2,5,763,14,"congruent",1,1274,0,"Baseline","None","None"
"111",2,5,763,15,"congruent",1,445,0,"Baseline","None","None"
"112",2,5,763,16,"incongruent",1,729,0,"Baseline","None","None"
"113",2,5,763,17,"incongruent",1,1183,0,"Baseline","None","None"
"114",2,5,763,18,"incongruent",1,1848,0,"Baseline","None","None"
"115",2,5,763,19,"congruent",1,1035,0,"Baseline","None","None"
"116",2,5,763,20,"congruent",1,939,0,"Baseline","None","None"
"117",2,5,763,21,"congruent",1,975,0,"Baseline","None","None"
"118",2,5,763,22,"incongruent",1,1169,0,"Baseline","None","None"
"119",2,5,763,23,"congruent",1,896,0,"Baseline","None","None"
"120",2,5,763,24,"incongruent",1,795,0,"Baseline","None","None"
"121",2,5,763,25,"congruent",1,996,0,"Baseline","None","None"
"122",2,5,763,26,"incongruent",1,1584,0,"Baseline","None","None"
"123",2,5,763,27,"incongruent",1,877,0,"Baseline","None","None"
"124",2,5,763,28,"congruent",1,1758,0,"Baseline","None","None"
"125",2,5,763,29,"incongruent",1,1245,0,"Baseline","None","None"
"126",2,5,763,30,"congruent",1,574,0,"Baseline","None","None"
"127",2,5,763,31,"incongruent",1,1136,0,"Baseline","None","None"
"128",2,5,763,32,"incongruent",0,1704,0,"Baseline","None","None"
"129",2,5,763,33,"incongruent",1,493,0,"Baseline","None","None"
"130",2,5,763,34,"incongruent",1,712,0,"Baseline","None","None"
"131",2,5,763,35,"congruent",1,1094,0,"Baseline","None","None"
"132",2,5,763,36,"congruent",0,702,0,"Baseline","None","None"
"133",2,5,763,37,"congruent",1,488,0,"Baseline","None","None"
"134",2,5,763,38,"incongruent",1,735,0,"Baseline","None","None"
"135",2,5,763,39,"congruent",1,964,0,"Baseline","None","None"
"136",2,5,763,40,"congruent",0,1550,0,"Baseline","None","None"
"137",2,5,763,41,"incongruent",1,900,0,"Baseline","None","None"
"138",2,5,763,42,"incongruent",1,1229,0,"Baseline","None","None"
"139",2,5,763,43,"congruent",1,786,0,"Baseline","None","None"
"140",2,5,763,44,"congruent",1,740,0,"Baseline","None","None"
"141",2,5,763,45,"incongruent",1,575,0,"Baseline","None","None"
"142",2,5,763,46,"congruent",1,492,0,"Baseline","None","None"
"143",2,5,763,47,"incongruent",1,668,0,"Baseline","None","None"
"144",2,5,763,48,"incongruent",1,528,0,"Baseline","None","None"
"145",2,5,763,49,"congruent",1,601,0,"Baseline","None","None"
"146",2,5,763,50,"incongruent",1,785,0,"Baseline","None","None"
"147",2,5,763,51,"incongruent",1,965,0,"Baseline","None","None"
"148",2,5,763,52,"congruent",1,482,0,"Baseline","None","None"
"149",2,5,763,53,"congruent",1,1243,0,"Baseline","None","None"
"150",2,5,763,54,"incongruent",1,1162,0,"Baseline","None","None"
"151",2,5,763,55,"incongruent",1,730,0,"Baseline","None","None"
"152",2,5,763,56,"incongruent",1,1257,0,"Baseline","None","None"
"153",2,5,763,57,"incongruent",0,1700,0,"Baseline","None","None"
"154",2,5,763,58,"congruent",1,1229,0,"Baseline","None","None"
"155",2,5,763,59,"congruent",1,1206,0,"Baseline","None","None"
"156",2,5,763,60,"incongruent",1,1026,0,"Baseline","None","None"
"157",2,5,763,61,"incongruent",1,1001,0,"Baseline","None","None"
"158",2,5,763,62,"incongruent",1,1271,0,"Baseline","None","None"
"159",2,5,763,63,"incongruent",1,913,0,"Baseline","None","None"
"160",2,5,763,64,"incongruent",1,703,0,"Baseline","None","None"
"161",2,5,763,65,"incongruent",1,838,0,"Baseline","None","None"
"162",2,5,763,66,"incongruent",1,1499,0,"Baseline","None","None"
"163",2,5,763,67,"incongruent",1,1274,0,"Baseline","None","None"
"164",2,5,763,68,"congruent",1,1050,0,"Baseline","None","None"
"165",2,5,763,69,"congruent",1,1668,0,"Baseline","None","None"
"166",2,5,763,70,"incongruent",1,779,0,"Baseline","None","None"
"167",2,5,763,71,"congruent",1,929,0,"Baseline","None","None"
"168",2,5,763,72,"congruent",1,1684,0,"Baseline","None","None"
"169",2,5,763,73,"incongruent",1,1702,0,"Baseline","None","None"
"170",2,5,763,74,"congruent",1,1090,0,"Baseline","None","None"
"171",2,5,763,75,"incongruent",1,487,0,"Baseline","None","None"
"172",2,5,763,76,"congruent",1,1308,0,"Baseline","None","None"
"173",2,5,763,77,"incongruent",1,826,0,"Baseline","None","None"
"174",2,5,763,78,"incongruent",1,1556,0,"Baseline","None","None"
"175",2,5,763,79,"incongruent",1,612,0,"Baseline","None","None"
"176",2,5,763,80,"congruent",1,757,0,"Baseline","None","None"
"177",2,5,763,81,"congruent",1,1212,0,"Baseline","None","None"
"178",2,5,763,82,"incongruent",0,1603,0,"Baseline","None","None"
"179",2,5,763,83,"congruent",1,1931,0,"Baseline","None","None"
"180",2,5,763,84,"congruent",1,867,0,"Baseline","None","None"
"181",2,5,763,85,"congruent",1,698,0,"Baseline","None","None"
"182",2,5,763,86,"congruent",0,1746,0,"Baseline","None","None"
"183",2,5,763,87,"incongruent",1,881,0,"Baseline","None","None"
"184",2,5,763,88,"congruent",1,1751,0,"Baseline","None","None"
"185",2,5,763,89,"incongruent",0,1901,0,"Baseline","None","None"
"186",2,5,763,90,"incongruent",1,1571,0,"Baseline","None","None"
"187",2,5,763,91,"congruent",1,966,0,"Baseline","None","None"
"188",2,5,763,92,"incongruent",1,1170,0,"Baseline","None","None"
"189",2,5,763,93,"congruent",1,946,0,"Baseline","None","None"
"190",2,5,763,94,"congruent",1,565,0,"Baseline","None","None"
"191",2,5,763,95,"congruent",1,1377,0,"Baseline","None","None"
"192",2,5,763,96,"congruent",1,1377,0,"Baseline","None","None"
"193",3,5,531,1,"incongruent",1,527,0,"Baseline","None","None"
"194",3,5,531,2,"congruent",1,844,0,"Baseline","None","None"
"195",3,5,531,3,"incongruent",1,1504,0,"Baseline","None","None"
"196",3,5,531,4,"congruent",1,1905,0,"Baseline","None","None"
"197",3,5,531,5,"incongruent",0,0,0,"Baseline","None","None"
"198",3,5,531,6,"incongruent",1,1244,0,"Baseline","None","None"
"199",3,5,531,7,"incongruent",1,818,0,"Baseline","None","None"
"200",3,5,531,8,"congruent",1,793,0,"Baseline","None","None"
"201",3,5,531,9,"congruent",1,734,0,"Baseline","None","None"
"202",3,5,531,10,"congruent",1,606,0,"Baseline","None","None"
"203",3,5,531,11,"incongruent",1,608,0,"Baseline","None","None"
"204",3,5,531,12,"incongruent",1,640,0,"Baseline","None","None"
"205",3,5,531,13,"incongruent",1,581,0,"Baseline","None","None"
"206",3,5,531,14,"incongruent",1,573,0,"Baseline","None","None"
"207",3,5,531,15,"incongruent",1,579,0,"Baseline","None","None"
"208",3,5,531,16,"congruent",1,585,0,"Baseline","None","None"
"209",3,5,531,17,"congruent",1,699,0,"Baseline","None","None"
"210",3,5,531,18,"congruent",1,521,0,"Baseline","None","None"
"211",3,5,531,19,"incongruent",1,704,0,"Baseline","None","None"
"212",3,5,531,20,"incongruent",1,573,0,"Baseline","None","None"
"213",3,5,531,21,"incongruent",1,454,0,"Baseline","None","None"
"214",3,5,531,22,"congruent",1,593,0,"Baseline","None","None"
"215",3,5,531,23,"incongruent",1,670,0,"Baseline","None","None"
"216",3,5,531,24,"congruent",1,511,0,"Baseline","None","None"
"217",3,5,531,25,"incongruent",1,464,0,"Baseline","None","None"
"218",3,5,531,26,"congruent",1,476,0,"Baseline","None","None"
"219",3,5,531,27,"congruent",1,490,0,"Baseline","None","None"
"220",3,5,531,28,"incongruent",1,517,0,"Baseline","None","None"
"221",3,5,531,29,"congruent",1,1212,0,"Baseline","None","None"
"222",3,5,531,30,"incongruent",1,480,0,"Baseline","None","None"
"223",3,5,531,31,"congruent",1,507,0,"Baseline","None","None"
"224",3,5,531,32,"congruent",1,567,0,"Baseline","None","None"
"225",3,5,531,33,"congruent",1,443,0,"Baseline","None","None"
"226",3,5,531,34,"congruent",1,692,0,"Baseline","None","None"
"227",3,5,531,35,"incongruent",1,539,0,"Baseline","None","None"
"228",3,5,531,36,"incongruent",1,459,0,"Baseline","None","None"
"229",3,5,531,37,"incongruent",1,648,0,"Baseline","None","None"
"230",3,5,531,38,"congruent",1,1424,0,"Baseline","None","None"
"231",3,5,531,39,"incongruent",1,604,0,"Baseline","None","None"
"232",3,5,531,40,"incongruent",1,847,0,"Baseline","None","None"
"233",3,5,531,41,"congruent",1,531,0,"Baseline","None","None"
"234",3,5,531,42,"congruent",1,499,0,"Baseline","None","None"
"235",3,5,531,43,"incongruent",1,914,0,"Baseline","None","None"
"236",3,5,531,44,"incongruent",1,1055,0,"Baseline","None","None"
"237",3,5,531,45,"congruent",1,557,0,"Baseline","None","None"
"238",3,5,531,46,"incongruent",1,932,0,"Baseline","None","None"
"239",3,5,531,47,"congruent",1,563,0,"Baseline","None","None"
"240",3,5,531,48,"congruent",1,552,0,"Baseline","None","None"
"241",3,5,531,49,"incongruent",1,705,0,"Baseline","None","None"
"242",3,5,531,50,"congruent",1,579,0,"Baseline","None","None"
"243",3,5,531,51,"congruent",1,949,0,"Baseline","None","None"
"244",3,5,531,52,"incongruent",1,686,0,"Baseline","None","None"
"245",3,5,531,53,"incongruent",1,1248,0,"Baseline","None","None"
"246",3,5,531,54,"congruent",1,487,0,"Baseline","None","None"
"247",3,5,531,55,"congruent",1,451,0,"Baseline","None","None"
"248",3,5,531,56,"congruent",1,723,0,"Baseline","None","None"
"249",3,5,531,57,"congruent",1,453,0,"Baseline","None","None"
"250",3,5,531,58,"incongruent",1,427,0,"Baseline","None","None"
"251",3,5,531,59,"incongruent",1,503,0,"Baseline","None","None"
"252",3,5,531,60,"congruent",1,586,0,"Baseline","None","None"
"253",3,5,531,61,"congruent",1,522,0,"Baseline","None","None"
"254",3,5,531,62,"congruent",1,475,0,"Baseline","None","None"
"255",3,5,531,63,"congruent",1,362,0,"Baseline","None","None"
"256",3,5,531,64,"congruent",1,534,0,"Baseline","None","None"
"257",3,5,531,65,"congruent",1,528,0,"Baseline","None","None"
"258",3,5,531,66,"congruent",1,960,0,"Baseline","None","None"
"259",3,5,531,67,"congruent",1,496,0,"Baseline","None","None"
"260",3,5,531,68,"incongruent",1,629,0,"Baseline","None","None"
"261",3,5,531,69,"incongruent",1,468,0,"Baseline","None","None"
"262",3,5,531,70,"congruent",1,835,0,"Baseline","None","None"
"263",3,5,531,71,"incongruent",1,525,0,"Baseline","None","None"
"264",3,5,531,72,"incongruent",1,1008,0,"Baseline","None","None"
"265",3,5,531,73,"congruent",1,1029,0,"Baseline","None","None"
"266",3,5,531,74,"incongruent",1,918,0,"Baseline","None","None"
"267",3,5,531,75,"congruent",1,1319,0,"Baseline","None","None"
"268",3,5,531,76,"incongruent",1,695,0,"Baseline","None","None"
"269",3,5,531,77,"congruent",1,1279,0,"Baseline","None","None"
"270",3,5,531,78,"congruent",1,531,0,"Baseline","None","None"
"271",3,5,531,79,"congruent",1,736,0,"Baseline","None","None"
"272",3,5,531,80,"incongruent",1,514,0,"Baseline","None","None"
"273",3,5,531,81,"incongruent",1,857,0,"Baseline","None","None"
"274",3,5,531,82,"congruent",1,1137,0,"Baseline","None","None"
"275",3,5,531,83,"incongruent",1,626,0,"Baseline","None","None"
"276",3,5,531,84,"incongruent",1,570,0,"Baseline","None","None"
"277",3,5,531,85,"incongruent",1,548,0,"Baseline","None","None"
"278",3,5,531,86,"incongruent",1,583,0,"Baseline","None","None"
"279",3,5,531,87,"congruent",1,487,0,"Baseline","None","None"
"280",3,5,531,88,"incongruent",1,1315,0,"Baseline","None","None"
"281",3,5,531,89,"congruent",1,593,0,"Baseline","None","None"
"282",3,5,531,90,"congruent",1,431,0,"Baseline","None","None"
"283",3,5,531,91,"incongruent",1,563,0,"Baseline","None","None"
"284",3,5,531,92,"congruent",1,1406,0,"Baseline","None","None"
"285",3,5,531,93,"incongruent",1,1263,0,"Baseline","None","None"
"286",3,5,531,94,"incongruent",1,933,0,"Baseline","None","None"
"287",3,5,531,95,"incongruent",1,972,0,"Baseline","None","None"
"288",3,5,531,96,"incongruent",1,996,0,"Baseline","None","None"
"289",4,5,594,1,"incongruent",0,1098,0,"Baseline","None","None"
"290",4,5,594,2,"congruent",1,620,0,"Baseline","None","None"
"291",4,5,594,3,"incongruent",1,570,0,"Baseline","None","None"
"292",4,5,594,4,"congruent",1,566,0,"Baseline","None","None"
"293",4,5,594,5,"incongruent",1,991,0,"Baseline","None","None"
"294",4,5,594,6,"incongruent",1,666,0,"Baseline","None","None"
"295",4,5,594,7,"incongruent",1,1578,0,"Baseline","None","None"
"296",4,5,594,8,"congruent",1,716,0,"Baseline","None","None"
"297",4,5,594,9,"congruent",0,1245,0,"Baseline","None","None"
"298",4,5,594,10,"congruent",1,554,0,"Baseline","None","None"
"299",4,5,594,11,"incongruent",1,1047,0,"Baseline","None","None"
"300",4,5,594,12,"incongruent",1,1030,0,"Baseline","None","None"
"301",4,5,594,13,"incongruent",1,708,0,"Baseline","None","None"
"302",4,5,594,14,"incongruent",1,525,0,"Baseline","None","None"
"303",4,5,594,15,"incongruent",1,791,0,"Baseline","None","None"
"304",4,5,594,16,"congruent",1,695,0,"Baseline","None","None"
"305",4,5,594,17,"congruent",1,474,0,"Baseline","None","None"
"306",4,5,594,18,"congruent",1,591,0,"Baseline","None","None"
"307",4,5,594,19,"incongruent",1,665,0,"Baseline","None","None"
"308",4,5,594,20,"incongruent",1,700,0,"Baseline","None","None"
"309",4,5,594,21,"incongruent",1,647,0,"Baseline","None","None"
"310",4,5,594,22,"congruent",1,585,0,"Baseline","None","None"
"311",4,5,594,23,"incongruent",1,816,0,"Baseline","None","None"
"312",4,5,594,24,"congruent",1,474,0,"Baseline","None","None"
"313",4,5,594,25,"incongruent",1,906,0,"Baseline","None","None"
"314",4,5,594,26,"congruent",0,1253,0,"Baseline","None","None"
"315",4,5,594,27,"congruent",1,768,0,"Baseline","None","None"
"316",4,5,594,28,"incongruent",1,495,0,"Baseline","None","None"
"317",4,5,594,29,"congruent",1,615,0,"Baseline","None","None"
"318",4,5,594,30,"incongruent",1,485,0,"Baseline","None","None"
"319",4,5,594,31,"congruent",1,739,0,"Baseline","None","None"
"320",4,5,594,32,"congruent",1,702,0,"Baseline","None","None"
"321",4,5,594,33,"congruent",1,1567,0,"Baseline","None","None"
"322",4,5,594,34,"congruent",1,586,0,"Baseline","None","None"
"323",4,5,594,35,"incongruent",1,681,0,"Baseline","None","None"
"324",4,5,594,36,"incongruent",1,585,0,"Baseline","None","None"
"325",4,5,594,37,"incongruent",1,720,0,"Baseline","None","None"
"326",4,5,594,38,"congruent",1,1979,0,"Baseline","None","None"
"327",4,5,594,39,"incongruent",1,453,0,"Baseline","None","None"
"328",4,5,594,40,"incongruent",1,504,0,"Baseline","None","None"
"329",4,5,594,41,"congruent",1,533,0,"Baseline","None","None"
"330",4,5,594,42,"congruent",1,1565,0,"Baseline","None","None"
"331",4,5,594,43,"incongruent",1,1182,0,"Baseline","None","None"
"332",4,5,594,44,"incongruent",1,1068,0,"Baseline","None","None"
"333",4,5,594,45,"congruent",1,495,0,"Baseline","None","None"
"334",4,5,594,46,"incongruent",1,836,0,"Baseline","None","None"
"335",4,5,594,47,"congruent",1,464,0,"Baseline","None","None"
"336",4,5,594,48,"congruent",0,1492,0,"Baseline","None","None"
"337",4,5,594,49,"incongruent",1,483,0,"Baseline","None","None"
"338",4,5,594,50,"congruent",1,526,0,"Baseline","None","None"
"339",4,5,594,51,"congruent",1,694,0,"Baseline","None","None"
"340",4,5,594,52,"incongruent",1,1659,0,"Baseline","None","None"
"341",4,5,594,53,"incongruent",1,540,0,"Baseline","None","None"
"342",4,5,594,54,"congruent",1,789,0,"Baseline","None","None"
"343",4,5,594,55,"congruent",1,931,0,"Baseline","None","None"
"344",4,5,594,56,"congruent",1,609,0,"Baseline","None","None"
"345",4,5,594,57,"congruent",1,785,0,"Baseline","None","None"
"346",4,5,594,58,"incongruent",1,1210,0,"Baseline","None","None"
"347",4,5,594,59,"incongruent",1,875,0,"Baseline","None","None"
"348",4,5,594,60,"congruent",1,520,0,"Baseline","None","None"
"349",4,5,594,61,"congruent",1,1006,0,"Baseline","None","None"
"350",4,5,594,62,"congruent",1,1098,0,"Baseline","None","None"
"351",4,5,594,63,"congruent",1,1219,0,"Baseline","None","None"
"352",4,5,594,64,"congruent",1,629,0,"Baseline","None","None"
"353",4,5,594,65,"congruent",1,645,0,"Baseline","None","None"
"354",4,5,594,66,"congruent",1,696,0,"Baseline","None","None"
"355",4,5,594,67,"congruent",1,670,0,"Baseline","None","None"
"356",4,5,594,68,"incongruent",1,1360,0,"Baseline","None","None"
"357",4,5,594,69,"incongruent",1,1848,0,"Baseline","None","None"
"358",4,5,594,70,"congruent",1,699,0,"Baseline","None","None"
"359",4,5,594,71,"incongruent",1,1481,0,"Baseline","None","None"
"360",4,5,594,72,"incongruent",1,397,0,"Baseline","None","None"
"361",4,5,594,73,"congruent",1,643,0,"Baseline","None","None"
"362",4,5,594,74,"incongruent",1,797,0,"Baseline","None","None"
"363",4,5,594,75,"congruent",1,622,0,"Baseline","None","None"
"364",4,5,594,76,"incongruent",1,531,0,"Baseline","None","None"
"365",4,5,594,77,"congruent",1,571,0,"Baseline","None","None"
"366",4,5,594,78,"congruent",1,634,0,"Baseline","None","None"
"367",4,5,594,79,"congruent",1,978,0,"Baseline","None","None"
"368",4,5,594,80,"incongruent",1,897,0,"Baseline","None","None"
"369",4,5,594,81,"incongruent",1,843,0,"Baseline","None","None"
"370",4,5,594,82,"congruent",1,947,0,"Baseline","None","None"
"371",4,5,594,83,"incongruent",1,548,0,"Baseline","None","None"
"372",4,5,594,84,"incongruent",1,853,0,"Baseline","None","None"
"373",4,5,594,85,"incongruent",1,594,0,"Baseline","None","None"
"374",4,5,594,86,"incongruent",1,781,0,"Baseline","None","None"
"375",4,5,594,87,"congruent",1,500,0,"Baseline","None","None"
"376",4,5,594,88,"incongruent",1,545,0,"Baseline","None","None"
"377",4,5,594,89,"congruent",1,1412,0,"Baseline","None","None"
"378",4,5,594,90,"congruent",1,468,0,"Baseline","None","None"
"379",4,5,594,91,"incongruent",1,1374,0,"Baseline","None","None"
"380",4,5,594,92,"congruent",0,1285,0,"Baseline","None","None"
"381",4,5,594,93,"incongruent",1,926,0,"Baseline","None","None"
"382",4,5,594,94,"incongruent",1,818,0,"Baseline","None","None"
"383",4,5,594,95,"incongruent",1,1135,0,"Baseline","None","None"
"384",4,5,594,96,"incongruent",1,664,0,"Baseline","None","None"
"385",5,5,432,1,"congruent",1,528,0,"Baseline","None","None"
"386",5,5,432,2,"incongruent",1,1276,0,"Baseline","None","None"
"387",5,5,432,3,"congruent",1,736,0,"Baseline","None","None"
"388",5,5,432,4,"incongruent",1,520,0,"Baseline","None","None"
"389",5,5,432,5,"congruent",0,1095,0,"Baseline","None","None"
"390",5,5,432,6,"congruent",1,509,0,"Baseline","None","None"
"391",5,5,432,7,"congruent",1,430,0,"Baseline","None","None"
"392",5,5,432,8,"incongruent",1,469,0,"Baseline","None","None"
"393",5,5,432,9,"incongruent",1,407,0,"Baseline","None","None"
"394",5,5,432,10,"incongruent",1,543,0,"Baseline","None","None"
"395",5,5,432,11,"congruent",1,466,0,"Baseline","None","None"
"396",5,5,432,12,"congruent",1,790,0,"Baseline","None","None"
"397",5,5,432,13,"congruent",1,389,0,"Baseline","None","None"
"398",5,5,432,14,"congruent",1,711,0,"Baseline","None","None"
"399",5,5,432,15,"congruent",1,657,0,"Baseline","None","None"
"400",5,5,432,16,"incongruent",1,502,0,"Baseline","None","None"
"401",5,5,432,17,"incongruent",0,373,0,"Baseline","None","None"
"402",5,5,432,18,"incongruent",1,639,0,"Baseline","None","None"
"403",5,5,432,19,"congruent",1,483,0,"Baseline","None","None"
"404",5,5,432,20,"congruent",1,468,0,"Baseline","None","None"
"405",5,5,432,21,"congruent",1,523,0,"Baseline","None","None"
"406",5,5,432,22,"incongruent",1,473,0,"Baseline","None","None"
"407",5,5,432,23,"congruent",1,646,0,"Baseline","None","None"
"408",5,5,432,24,"incongruent",1,400,0,"Baseline","None","None"
"409",5,5,432,25,"congruent",1,327,0,"Baseline","None","None"
"410",5,5,432,26,"incongruent",1,444,0,"Baseline","None","None"
"411",5,5,432,27,"incongruent",1,475,0,"Baseline","None","None"
"412",5,5,432,28,"congruent",1,678,0,"Baseline","None","None"
"413",5,5,432,29,"incongruent",1,531,0,"Baseline","None","None"
"414",5,5,432,30,"congruent",1,373,0,"Baseline","None","None"
"415",5,5,432,31,"incongruent",1,432,0,"Baseline","None","None"
"416",5,5,432,32,"incongruent",1,454,0,"Baseline","None","None"
"417",5,5,432,33,"incongruent",1,1151,0,"Baseline","None","None"
"418",5,5,432,34,"incongruent",1,436,0,"Baseline","None","None"
"419",5,5,432,35,"congruent",1,331,0,"Baseline","None","None"
"420",5,5,432,36,"congruent",1,523,0,"Baseline","None","None"
"421",5,5,432,37,"congruent",1,366,0,"Baseline","None","None"
"422",5,5,432,38,"incongruent",1,385,0,"Baseline","None","None"
"423",5,5,432,39,"congruent",1,396,0,"Baseline","None","None"
"424",5,5,432,40,"congruent",0,594,0,"Baseline","None","None"
"425",5,5,432,41,"incongruent",1,439,0,"Baseline","None","None"
"426",5,5,432,42,"incongruent",1,585,0,"Baseline","None","None"
"427",5,5,432,43,"congruent",1,480,0,"Baseline","None","None"
"428",5,5,432,44,"congruent",1,315,0,"Baseline","None","None"
"429",5,5,432,45,"incongruent",1,717,0,"Baseline","None","None"
"430",5,5,432,46,"congruent",1,527,0,"Baseline","None","None"
"431",5,5,432,47,"incongruent",1,1175,0,"Baseline","None","None"
"432",5,5,432,48,"incongruent",0,771,0,"Baseline","None","None"
"433",5,5,432,49,"congruent",1,481,0,"Baseline","None","None"
"434",5,5,432,50,"incongruent",1,413,0,"Baseline","None","None"
"435",5,5,432,51,"incongruent",1,428,0,"Baseline","None","None"
"436",5,5,432,52,"congruent",1,384,0,"Baseline","None","None"
"437",5,5,432,53,"congruent",1,418,0,"Baseline","None","None"
"438",5,5,432,54,"incongruent",1,489,0,"Baseline","None","None"
"439",5,5,432,55,"incongruent",1,535,0,"Baseline","None","None"
"440",5,5,432,56,"incongruent",1,338,0,"Baseline","None","None"
"441",5,5,432,57,"incongruent",0,401,0,"Baseline","None","None"
"442",5,5,432,58,"congruent",1,485,0,"Baseline","None","None"
"443",5,5,432,59,"congruent",1,481,0,"Baseline","None","None"
"444",5,5,432,60,"incongruent",1,450,0,"Baseline","None","None"
"445",5,5,432,61,"incongruent",1,865,0,"Baseline","None","None"
"446",5,5,432,62,"incongruent",1,366,0,"Baseline","None","None"
"447",5,5,432,63,"incongruent",1,1162,0,"Baseline","None","None"
"448",5,5,432,64,"incongruent",1,323,0,"Baseline","None","None"
"449",5,5,432,65,"incongruent",1,445,0,"Baseline","None","None"
"450",5,5,432,66,"incongruent",1,403,0,"Baseline","None","None"
"451",5,5,432,67,"incongruent",1,587,0,"Baseline","None","None"
"452",5,5,432,68,"congruent",1,507,0,"Baseline","None","None"
"453",5,5,432,69,"congruent",0,300,0,"Baseline","None","None"
"454",5,5,432,70,"incongruent",1,352,0,"Baseline","None","None"
"455",5,5,432,71,"congruent",1,475,0,"Baseline","None","None"
"456",5,5,432,72,"congruent",1,622,0,"Baseline","None","None"
"457",5,5,432,73,"incongruent",1,498,0,"Baseline","None","None"
"458",5,5,432,74,"congruent",1,323,0,"Baseline","None","None"
"459",5,5,432,75,"incongruent",1,594,0,"Baseline","None","None"
"460",5,5,432,76,"congruent",1,372,0,"Baseline","None","None"
"461",5,5,432,77,"incongruent",1,492,0,"Baseline","None","None"
"462",5,5,432,78,"incongruent",1,477,0,"Baseline","None","None"
"463",5,5,432,79,"incongruent",0,395,0,"Baseline","None","None"
"464",5,5,432,80,"congruent",1,431,0,"Baseline","None","None"
"465",5,5,432,81,"congruent",1,595,0,"Baseline","None","None"
"466",5,5,432,82,"incongruent",1,372,0,"Baseline","None","None"
"467",5,5,432,83,"congruent",1,359,0,"Baseline","None","None"
"468",5,5,432,84,"congruent",1,474,0,"Baseline","None","None"
"469",5,5,432,85,"congruent",1,441,0,"Baseline","None","None"
"470",5,5,432,86,"congruent",1,370,0,"Baseline","None","None"
"471",5,5,432,87,"incongruent",1,406,0,"Baseline","None","None"
"472",5,5,432,88,"congruent",1,523,0,"Baseline","None","None"
"473",5,5,432,89,"incongruent",0,606,0,"Baseline","None","None"
"474",5,5,432,90,"incongruent",1,768,0,"Baseline","None","None"
"475",5,5,432,91,"congruent",1,517,0,"Baseline","None","None"
"476",5,5,432,92,"incongruent",1,445,0,"Baseline","None","None"
"477",5,5,432,93,"congruent",1,329,0,"Baseline","None","None"
"478",5,5,432,94,"congruent",1,445,0,"Baseline","None","None"
"479",5,5,432,95,"congruent",1,765,0,"Baseline","None","None"
"480",5,5,432,96,"congruent",0,379,0,"Baseline","None","None"
"481",6,5,602,1,"congruent",1,877,0,"Baseline","None","None"
"482",6,5,602,2,"incongruent",1,736,0,"Baseline","None","None"
"483",6,5,602,3,"congruent",1,615,0,"Baseline","None","None"
"484",6,5,602,4,"incongruent",1,847,0,"Baseline","None","None"
"485",6,5,602,5,"congruent",1,998,0,"Baseline","None","None"
"486",6,5,602,6,"congruent",1,827,0,"Baseline","None","None"
"487",6,5,602,7,"congruent",1,1235,0,"Baseline","None","None"
"488",6,5,602,8,"incongruent",1,781,0,"Baseline","None","None"
"489",6,5,602,9,"incongruent",1,604,0,"Baseline","None","None"
"490",6,5,602,10,"incongruent",1,878,0,"Baseline","None","None"
"491",6,5,602,11,"congruent",1,677,0,"Baseline","None","None"
"492",6,5,602,12,"congruent",1,971,0,"Baseline","None","None"
"493",6,5,602,13,"congruent",1,628,0,"Baseline","None","None"
"494",6,5,602,14,"congruent",1,564,0,"Baseline","None","None"
"495",6,5,602,15,"congruent",1,746,0,"Baseline","None","None"
"496",6,5,602,16,"incongruent",1,699,0,"Baseline","None","None"
"497",6,5,602,17,"incongruent",1,540,0,"Baseline","None","None"
"498",6,5,602,18,"incongruent",1,722,0,"Baseline","None","None"
"499",6,5,602,19,"congruent",1,1217,0,"Baseline","None","None"
"500",6,5,602,20,"congruent",1,1304,0,"Baseline","None","None"
"501",6,5,602,21,"congruent",1,978,0,"Baseline","None","None"
"502",6,5,602,22,"incongruent",1,609,0,"Baseline","None","None"
"503",6,5,602,23,"congruent",1,876,0,"Baseline","None","None"
"504",6,5,602,24,"incongruent",1,771,0,"Baseline","None","None"
"505",6,5,602,25,"congruent",1,521,0,"Baseline","None","None"
"506",6,5,602,26,"incongruent",1,906,0,"Baseline","None","None"
"507",6,5,602,27,"incongruent",1,642,0,"Baseline","None","None"
"508",6,5,602,28,"congruent",1,765,0,"Baseline","None","None"
"509",6,5,602,29,"incongruent",1,1175,0,"Baseline","None","None"
"510",6,5,602,30,"congruent",1,602,0,"Baseline","None","None"
"511",6,5,602,31,"incongruent",1,961,0,"Baseline","None","None"
"512",6,5,602,32,"incongruent",1,804,0,"Baseline","None","None"
"513",6,5,602,33,"incongruent",1,871,0,"Baseline","None","None"
"514",6,5,602,34,"incongruent",1,947,0,"Baseline","None","None"
"515",6,5,602,35,"congruent",1,683,0,"Baseline","None","None"
"516",6,5,602,36,"congruent",1,632,0,"Baseline","None","None"
"517",6,5,602,37,"congruent",1,562,0,"Baseline","None","None"
"518",6,5,602,38,"incongruent",1,885,0,"Baseline","None","None"
"519",6,5,602,39,"congruent",1,1064,0,"Baseline","None","None"
"520",6,5,602,40,"congruent",1,1258,0,"Baseline","None","None"
"521",6,5,602,41,"incongruent",1,1048,0,"Baseline","None","None"
"522",6,5,602,42,"incongruent",1,527,0,"Baseline","None","None"
"523",6,5,602,43,"congruent",1,505,0,"Baseline","None","None"
"524",6,5,602,44,"congruent",1,805,0,"Baseline","None","None"
"525",6,5,602,45,"incongruent",1,507,0,"Baseline","None","None"
"526",6,5,602,46,"congruent",1,662,0,"Baseline","None","None"
"527",6,5,602,47,"incongruent",1,831,0,"Baseline","None","None"
"528",6,5,602,48,"incongruent",1,450,0,"Baseline","None","None"
"529",6,5,602,49,"congruent",1,787,0,"Baseline","None","None"
"530",6,5,602,50,"incongruent",1,600,0,"Baseline","None","None"
"531",6,5,602,51,"incongruent",1,716,0,"Baseline","None","None"
"532",6,5,602,52,"congruent",1,1570,0,"Baseline","None","None"
"533",6,5,602,53,"congruent",1,632,0,"Baseline","None","None"
"534",6,5,602,54,"incongruent",1,570,0,"Baseline","None","None"
"535",6,5,602,55,"incongruent",1,681,0,"Baseline","None","None"
"536",6,5,602,56,"incongruent",1,884,0,"Baseline","None","None"
"537",6,5,602,57,"incongruent",1,520,0,"Baseline","None","None"
"538",6,5,602,58,"congruent",1,658,0,"Baseline","None","None"
"539",6,5,602,59,"congruent",1,577,0,"Baseline","None","None"
"540",6,5,602,60,"incongruent",1,1208,0,"Baseline","None","None"
"541",6,5,602,61,"incongruent",1,458,0,"Baseline","None","None"
"542",6,5,602,62,"incongruent",1,585,0,"Baseline","None","None"
"543",6,5,602,63,"incongruent",1,461,0,"Baseline","None","None"
"544",6,5,602,64,"incongruent",1,674,0,"Baseline","None","None"
"545",6,5,602,65,"incongruent",1,814,0,"Baseline","None","None"
"546",6,5,602,66,"incongruent",1,1027,0,"Baseline","None","None"
"547",6,5,602,67,"incongruent",1,433,0,"Baseline","None","None"
"548",6,5,602,68,"congruent",1,760,0,"Baseline","None","None"
"549",6,5,602,69,"congruent",1,410,0,"Baseline","None","None"
"550",6,5,602,70,"incongruent",1,943,0,"Baseline","None","None"
"551",6,5,602,71,"congruent",1,523,0,"Baseline","None","None"
"552",6,5,602,72,"congruent",1,839,0,"Baseline","None","None"
"553",6,5,602,73,"incongruent",1,1335,0,"Baseline","None","None"
"554",6,5,602,74,"congruent",1,483,0,"Baseline","None","None"
"555",6,5,602,75,"incongruent",1,1348,0,"Baseline","None","None"
"556",6,5,602,76,"congruent",1,825,0,"Baseline","None","None"
"557",6,5,602,77,"incongruent",1,625,0,"Baseline","None","None"
"558",6,5,602,78,"incongruent",1,569,0,"Baseline","None","None"
"559",6,5,602,79,"incongruent",1,614,0,"Baseline","None","None"
"560",6,5,602,80,"congruent",1,687,0,"Baseline","None","None"
"561",6,5,602,81,"congruent",1,479,0,"Baseline","None","None"
"562",6,5,602,82,"incongruent",1,593,0,"Baseline","None","None"
"563",6,5,602,83,"congruent",1,873,0,"Baseline","None","None"
"564",6,5,602,84,"congruent",1,704,0,"Baseline","None","None"
"565",6,5,602,85,"congruent",1,418,0,"Baseline","None","None"
"566",6,5,602,86,"congruent",1,627,0,"Baseline","None","None"
"567",6,5,602,87,"incongruent",1,670,0,"Baseline","None","None"
"568",6,5,602,88,"congruent",1,649,0,"Baseline","None","None"
"569",6,5,602,89,"incongruent",1,582,0,"Baseline","None","None"
"570",6,5,602,90,"incongruent",1,736,0,"Baseline","None","None"
"571",6,5,602,91,"congruent",1,890,0,"Baseline","None","None"
"572",6,5,602,92,"incongruent",1,556,0,"Baseline","None","None"
"573",6,5,602,93,"congruent",1,423,0,"Baseline","None","None"
"574",6,5,602,94,"congruent",1,411,0,"Baseline","None","None"
"575",6,5,602,95,"congruent",1,704,0,"Baseline","None","None"
"576",6,5,602,96,"congruent",1,540,0,"Baseline","None","None"
"577",7,5,569,1,"incongruent",1,599,0,"Baseline","None","None"
"578",7,5,569,2,"congruent",1,447,0,"Baseline","None","None"
"579",7,5,569,3,"incongruent",1,598,0,"Baseline","None","None"
"580",7,5,569,4,"congruent",1,368,0,"Baseline","None","None"
"581",7,5,569,5,"incongruent",1,524,0,"Baseline","None","None"
"582",7,5,569,6,"incongruent",1,431,0,"Baseline","None","None"
"583",7,5,569,7,"incongruent",0,1237,0,"Baseline","None","None"
"584",7,5,569,8,"congruent",1,1069,0,"Baseline","None","None"
"585",7,5,569,9,"congruent",1,454,0,"Baseline","None","None"
"586",7,5,569,10,"congruent",1,950,0,"Baseline","None","None"
"587",7,5,569,11,"incongruent",1,732,0,"Baseline","None","None"
"588",7,5,569,12,"incongruent",1,712,0,"Baseline","None","None"
"589",7,5,569,13,"incongruent",1,557,0,"Baseline","None","None"
"590",7,5,569,14,"incongruent",1,464,0,"Baseline","None","None"
"591",7,5,569,15,"incongruent",1,770,0,"Baseline","None","None"
"592",7,5,569,16,"congruent",1,852,0,"Baseline","None","None"
"593",7,5,569,17,"congruent",1,582,0,"Baseline","None","None"
"594",7,5,569,18,"congruent",1,573,0,"Baseline","None","None"
"595",7,5,569,19,"incongruent",1,496,0,"Baseline","None","None"
"596",7,5,569,20,"incongruent",1,465,0,"Baseline","None","None"
"597",7,5,569,21,"incongruent",1,536,0,"Baseline","None","None"
"598",7,5,569,22,"congruent",1,528,0,"Baseline","None","None"
"599",7,5,569,23,"incongruent",1,512,0,"Baseline","None","None"
"600",7,5,569,24,"congruent",1,1009,0,"Baseline","None","None"
"601",7,5,569,25,"incongruent",1,633,0,"Baseline","None","None"
"602",7,5,569,26,"congruent",1,569,0,"Baseline","None","None"
"603",7,5,569,27,"congruent",1,733,0,"Baseline","None","None"
"604",7,5,569,28,"incongruent",1,724,0,"Baseline","None","None"
"605",7,5,569,29,"congruent",1,572,0,"Baseline","None","None"
"606",7,5,569,30,"incongruent",1,838,0,"Baseline","None","None"
"607",7,5,569,31,"congruent",1,638,0,"Baseline","None","None"
"608",7,5,569,32,"congruent",1,1282,0,"Baseline","None","None"
"609",7,5,569,33,"congruent",1,743,0,"Baseline","None","None"
"610",7,5,569,34,"congruent",1,639,0,"Baseline","None","None"
"611",7,5,569,35,"incongruent",1,1414,0,"Baseline","None","None"
"612",7,5,569,36,"incongruent",1,732,0,"Baseline","None","None"
"613",7,5,569,37,"incongruent",1,492,0,"Baseline","None","None"
"614",7,5,569,38,"congruent",1,1981,0,"Baseline","None","None"
"615",7,5,569,39,"incongruent",1,494,0,"Baseline","None","None"
"616",7,5,569,40,"incongruent",1,892,0,"Baseline","None","None"
"617",7,5,569,41,"congruent",1,1650,0,"Baseline","None","None"
"618",7,5,569,42,"congruent",1,523,0,"Baseline","None","None"
"619",7,5,569,43,"incongruent",1,1521,0,"Baseline","None","None"
"620",7,5,569,44,"incongruent",1,1114,0,"Baseline","None","None"
"621",7,5,569,45,"congruent",1,814,0,"Baseline","None","None"
"622",7,5,569,46,"incongruent",1,479,0,"Baseline","None","None"
"623",7,5,569,47,"congruent",1,800,0,"Baseline","None","None"
"624",7,5,569,48,"congruent",1,1084,0,"Baseline","None","None"
"625",7,5,569,49,"incongruent",1,594,0,"Baseline","None","None"
"626",7,5,569,50,"congruent",1,734,0,"Baseline","None","None"
"627",7,5,569,51,"congruent",1,449,0,"Baseline","None","None"
"628",7,5,569,52,"incongruent",1,549,0,"Baseline","None","None"
"629",7,5,569,53,"incongruent",1,800,0,"Baseline","None","None"
"630",7,5,569,54,"congruent",1,1293,0,"Baseline","None","None"
"631",7,5,569,55,"congruent",1,422,0,"Baseline","None","None"
"632",7,5,569,56,"congruent",1,1196,0,"Baseline","None","None"
"633",7,5,569,57,"congruent",1,976,0,"Baseline","None","None"
"634",7,5,569,58,"incongruent",1,713,0,"Baseline","None","None"
"635",7,5,569,59,"incongruent",1,960,0,"Baseline","None","None"
"636",7,5,569,60,"congruent",1,625,0,"Baseline","None","None"
"637",7,5,569,61,"congruent",1,1278,0,"Baseline","None","None"
"638",7,5,569,62,"congruent",1,911,0,"Baseline","None","None"
"639",7,5,569,63,"congruent",1,1110,0,"Baseline","None","None"
"640",7,5,569,64,"congruent",1,1674,0,"Baseline","None","None"
"641",7,5,569,65,"congruent",1,739,0,"Baseline","None","None"
"642",7,5,569,66,"congruent",1,650,0,"Baseline","None","None"
"643",7,5,569,67,"congruent",1,1014,0,"Baseline","None","None"
"644",7,5,569,68,"incongruent",1,445,0,"Baseline","None","None"
"645",7,5,569,69,"incongruent",1,813,0,"Baseline","None","None"
"646",7,5,569,70,"congruent",1,1492,0,"Baseline","None","None"
"647",7,5,569,71,"incongruent",0,0,0,"Baseline","None","None"
"648",7,5,569,72,"incongruent",1,554,0,"Baseline","None","None"
"649",7,5,569,73,"congruent",1,771,0,"Baseline","None","None"
"650",7,5,569,74,"incongruent",1,439,0,"Baseline","None","None"
"651",7,5,569,75,"congruent",1,529,0,"Baseline","None","None"
"652",7,5,569,76,"incongruent",1,1167,0,"Baseline","None","None"
"653",7,5,569,77,"congruent",1,481,0,"Baseline","None","None"
"654",7,5,569,78,"congruent",1,872,0,"Baseline","None","None"
"655",7,5,569,79,"congruent",1,573,0,"Baseline","None","None"
"656",7,5,569,80,"incongruent",1,526,0,"Baseline","None","None"
"657",7,5,569,81,"incongruent",1,1673,0,"Baseline","None","None"
"658",7,5,569,82,"congruent",1,1145,0,"Baseline","None","None"
"659",7,5,569,83,"incongruent",1,963,0,"Baseline","None","None"
"660",7,5,569,84,"incongruent",1,972,0,"Baseline","None","None"
"661",7,5,569,85,"incongruent",1,511,0,"Baseline","None","None"
"662",7,5,569,86,"incongruent",1,994,0,"Baseline","None","None"
"663",7,5,569,87,"congruent",1,740,0,"Baseline","None","None"
"664",7,5,569,88,"incongruent",1,1109,0,"Baseline","None","None"
"665",7,5,569,89,"congruent",1,556,0,"Baseline","None","None"
"666",7,5,569,90,"congruent",1,462,0,"Baseline","None","None"
"667",7,5,569,91,"incongruent",1,1770,0,"Baseline","None","None"
"668",7,5,569,92,"congruent",1,885,0,"Baseline","None","None"
"669",7,5,569,93,"incongruent",1,1183,0,"Baseline","None","None"
"670",7,5,569,94,"incongruent",1,1049,0,"Baseline","None","None"
"671",7,5,569,95,"incongruent",1,812,0,"Baseline","None","None"
"672",7,5,569,96,"incongruent",1,830,0,"Baseline","None","None"
"673",8,5,764,1,"incongruent",1,666,0,"Baseline","None","None"
"674",8,5,764,2,"congruent",1,498,0,"Baseline","None","None"
"675",8,5,764,3,"incongruent",1,553,0,"Baseline","None","None"
"676",8,5,764,4,"congruent",1,1130,0,"Baseline","None","None"
"677",8,5,764,5,"incongruent",1,1057,0,"Baseline","None","None"
"678",8,5,764,6,"incongruent",1,1074,0,"Baseline","None","None"
"679",8,5,764,7,"incongruent",1,1071,0,"Baseline","None","None"
"680",8,5,764,8,"congruent",1,920,0,"Baseline","None","None"
"681",8,5,764,9,"congruent",1,866,0,"Baseline","None","None"
"682",8,5,764,10,"congruent",0,346,0,"Baseline","None","None"
"683",8,5,764,11,"incongruent",0,0,0,"Baseline","None","None"
"684",8,5,764,12,"incongruent",1,822,0,"Baseline","None","None"
"685",8,5,764,13,"incongruent",1,773,0,"Baseline","None","None"
"686",8,5,764,14,"incongruent",1,1138,0,"Baseline","None","None"
"687",8,5,764,15,"incongruent",0,1267,0,"Baseline","None","None"
"688",8,5,764,16,"congruent",1,1333,0,"Baseline","None","None"
"689",8,5,764,17,"congruent",1,769,0,"Baseline","None","None"
"690",8,5,764,18,"congruent",0,760,0,"Baseline","None","None"
"691",8,5,764,19,"incongruent",1,1525,0,"Baseline","None","None"
"692",8,5,764,20,"incongruent",0,1054,0,"Baseline","None","None"
"693",8,5,764,21,"incongruent",1,982,0,"Baseline","None","None"
"694",8,5,764,22,"congruent",1,847,0,"Baseline","None","None"
"695",8,5,764,23,"incongruent",0,676,0,"Baseline","None","None"
"696",8,5,764,24,"congruent",1,703,0,"Baseline","None","None"
"697",8,5,764,25,"incongruent",1,688,0,"Baseline","None","None"
"698",8,5,764,26,"congruent",1,867,0,"Baseline","None","None"
"699",8,5,764,27,"congruent",1,1274,0,"Baseline","None","None"
"700",8,5,764,28,"incongruent",1,1673,0,"Baseline","None","None"
"701",8,5,764,29,"congruent",1,700,0,"Baseline","None","None"
"702",8,5,764,30,"incongruent",1,1511,0,"Baseline","None","None"
"703",8,5,764,31,"congruent",1,715,0,"Baseline","None","None"
"704",8,5,764,32,"congruent",1,1322,0,"Baseline","None","None"
"705",8,5,764,33,"congruent",1,560,0,"Baseline","None","None"
"706",8,5,764,34,"congruent",1,860,0,"Baseline","None","None"
"707",8,5,764,35,"incongruent",1,1088,0,"Baseline","None","None"
"708",8,5,764,36,"incongruent",1,1789,0,"Baseline","None","None"
"709",8,5,764,37,"incongruent",1,1053,0,"Baseline","None","None"
"710",8,5,764,38,"congruent",1,701,0,"Baseline","None","None"
"711",8,5,764,39,"incongruent",1,764,0,"Baseline","None","None"
"712",8,5,764,40,"incongruent",0,1378,0,"Baseline","None","None"
"713",8,5,764,41,"congruent",1,676,0,"Baseline","None","None"
"714",8,5,764,42,"congruent",0,0,0,"Baseline","None","None"
"715",8,5,764,43,"incongruent",1,1502,0,"Baseline","None","None"
"716",8,5,764,44,"incongruent",1,1178,0,"Baseline","None","None"
"717",8,5,764,45,"congruent",1,1182,0,"Baseline","None","None"
"718",8,5,764,46,"incongruent",1,667,0,"Baseline","None","None"
"719",8,5,764,47,"congruent",1,1080,0,"Baseline","None","None"
"720",8,5,764,48,"congruent",1,1955,0,"Baseline","None","None"
"721",8,5,764,49,"incongruent",1,1062,0,"Baseline","None","None"
"722",8,5,764,50,"congruent",1,893,0,"Baseline","None","None"
"723",8,5,764,51,"congruent",1,567,0,"Baseline","None","None"
"724",8,5,764,52,"incongruent",1,599,0,"Baseline","None","None"
"725",8,5,764,53,"incongruent",1,725,0,"Baseline","None","None"
"726",8,5,764,54,"congruent",1,1525,0,"Baseline","None","None"
"727",8,5,764,55,"congruent",1,419,0,"Baseline","None","None"
"728",8,5,764,56,"congruent",1,712,0,"Baseline","None","None"
"729",8,5,764,57,"congruent",0,1370,0,"Baseline","None","None"
"730",8,5,764,58,"incongruent",1,867,0,"Baseline","None","None"
"731",8,5,764,59,"incongruent",1,674,0,"Baseline","None","None"
"732",8,5,764,60,"congruent",1,914,0,"Baseline","None","None"
"733",8,5,764,61,"congruent",0,1210,0,"Baseline","None","None"
"734",8,5,764,62,"congruent",1,935,0,"Baseline","None","None"
"735",8,5,764,63,"congruent",1,660,0,"Baseline","None","None"
"736",8,5,764,64,"congruent",1,633,0,"Baseline","None","None"
"737",8,5,764,65,"congruent",1,865,0,"Baseline","None","None"
"738",8,5,764,66,"congruent",1,1379,0,"Baseline","None","None"
"739",8,5,764,67,"congruent",1,1262,0,"Baseline","None","None"
"740",8,5,764,68,"incongruent",1,1178,0,"Baseline","None","None"
"741",8,5,764,69,"incongruent",1,895,0,"Baseline","None","None"
"742",8,5,764,70,"congruent",1,727,0,"Baseline","None","None"
"743",8,5,764,71,"incongruent",1,1444,0,"Baseline","None","None"
"744",8,5,764,72,"incongruent",1,610,0,"Baseline","None","None"
"745",8,5,764,73,"congruent",1,1138,0,"Baseline","None","None"
"746",8,5,764,74,"incongruent",1,726,0,"Baseline","None","None"
"747",8,5,764,75,"congruent",1,1784,0,"Baseline","None","None"
"748",8,5,764,76,"incongruent",0,1244,0,"Baseline","None","None"
"749",8,5,764,77,"congruent",1,761,0,"Baseline","None","None"
"750",8,5,764,78,"congruent",1,795,0,"Baseline","None","None"
"751",8,5,764,79,"congruent",1,717,0,"Baseline","None","None"
"752",8,5,764,80,"incongruent",0,0,0,"Baseline","None","None"
"753",8,5,764,81,"incongruent",1,992,0,"Baseline","None","None"
"754",8,5,764,82,"congruent",0,0,0,"Baseline","None","None"
"755",8,5,764,83,"incongruent",1,733,0,"Baseline","None","None"
"756",8,5,764,84,"incongruent",1,1307,0,"Baseline","None","None"
"757",8,5,764,85,"incongruent",1,1600,0,"Baseline","None","None"
"758",8,5,764,86,"incongruent",1,724,0,"Baseline","None","None"
"759",8,5,764,87,"congruent",1,916,0,"Baseline","None","None"
"760",8,5,764,88,"incongruent",1,941,0,"Baseline","None","None"
"761",8,5,764,89,"congruent",1,732,0,"Baseline","None","None"
"762",8,5,764,90,"congruent",1,770,0,"Baseline","None","None"
"763",8,5,764,91,"incongruent",0,834,0,"Baseline","None","None"
"764",8,5,764,92,"congruent",1,1407,0,"Baseline","None","None"
"765",8,5,764,93,"incongruent",1,910,0,"Baseline","None","None"
"766",8,5,764,94,"incongruent",1,1552,0,"Baseline","None","None"
"767",8,5,764,95,"incongruent",1,779,0,"Baseline","None","None"
"768",8,5,764,96,"incongruent",1,524,0,"Baseline","None","None"
"769",9,5,694,1,"congruent",1,743,0,"Baseline","None","None"
"770",9,5,694,2,"incongruent",1,768,0,"Baseline","None","None"
"771",9,5,694,3,"congruent",1,462,0,"Baseline","None","None"
"772",9,5,694,4,"incongruent",1,1013,0,"Baseline","None","None"
"773",9,5,694,5,"congruent",1,1198,0,"Baseline","None","None"
"774",9,5,694,6,"congruent",1,818,0,"Baseline","None","None"
"775",9,5,694,7,"congruent",1,1118,0,"Baseline","None","None"
"776",9,5,694,8,"incongruent",1,786,0,"Baseline","None","None"
"777",9,5,694,9,"incongruent",1,844,0,"Baseline","None","None"
"778",9,5,694,10,"incongruent",1,749,0,"Baseline","None","None"
"779",9,5,694,11,"congruent",1,817,0,"Baseline","None","None"
"780",9,5,694,12,"congruent",1,848,0,"Baseline","None","None"
"781",9,5,694,13,"congruent",1,1053,0,"Baseline","None","None"
"782",9,5,694,14,"congruent",1,1067,0,"Baseline","None","None"
"783",9,5,694,15,"congruent",1,1223,0,"Baseline","None","None"
"784",9,5,694,16,"incongruent",0,1131,0,"Baseline","None","None"
"785",9,5,694,17,"incongruent",1,1054,0,"Baseline","None","None"
"786",9,5,694,18,"incongruent",1,422,0,"Baseline","None","None"
"787",9,5,694,19,"congruent",1,784,0,"Baseline","None","None"
"788",9,5,694,20,"congruent",1,759,0,"Baseline","None","None"
"789",9,5,694,21,"congruent",1,607,0,"Baseline","None","None"
"790",9,5,694,22,"incongruent",1,646,0,"Baseline","None","None"
"791",9,5,694,23,"congruent",1,544,0,"Baseline","None","None"
"792",9,5,694,24,"incongruent",1,838,0,"Baseline","None","None"
"793",9,5,694,25,"congruent",1,512,0,"Baseline","None","None"
"794",9,5,694,26,"incongruent",1,460,0,"Baseline","None","None"
"795",9,5,694,27,"incongruent",1,753,0,"Baseline","None","None"
"796",9,5,694,28,"congruent",0,1363,0,"Baseline","None","None"
"797",9,5,694,29,"incongruent",1,675,0,"Baseline","None","None"
"798",9,5,694,30,"congruent",1,836,0,"Baseline","None","None"
"799",9,5,694,31,"incongruent",1,747,0,"Baseline","None","None"
"800",9,5,694,32,"incongruent",1,989,0,"Baseline","None","None"
"801",9,5,694,33,"incongruent",0,711,0,"Baseline","None","None"
"802",9,5,694,34,"incongruent",1,744,0,"Baseline","None","None"
"803",9,5,694,35,"congruent",1,868,0,"Baseline","None","None"
"804",9,5,694,36,"congruent",1,1566,0,"Baseline","None","None"
"805",9,5,694,37,"congruent",1,1211,0,"Baseline","None","None"
"806",9,5,694,38,"incongruent",1,927,0,"Baseline","None","None"
"807",9,5,694,39,"congruent",1,432,0,"Baseline","None","None"
"808",9,5,694,40,"congruent",1,1242,0,"Baseline","None","None"
"809",9,5,694,41,"incongruent",1,711,0,"Baseline","None","None"
"810",9,5,694,42,"incongruent",1,1094,0,"Baseline","None","None"
"811",9,5,694,43,"congruent",1,1196,0,"Baseline","None","None"
"812",9,5,694,44,"congruent",1,461,0,"Baseline","None","None"
"813",9,5,694,45,"incongruent",1,516,0,"Baseline","None","None"
"814",9,5,694,46,"congruent",0,1462,0,"Baseline","None","None"
"815",9,5,694,47,"incongruent",0,0,0,"Baseline","None","None"
"816",9,5,694,48,"incongruent",1,620,0,"Baseline","None","None"
"817",9,5,694,49,"congruent",1,999,0,"Baseline","None","None"
"818",9,5,694,50,"incongruent",1,536,0,"Baseline","None","None"
"819",9,5,694,51,"incongruent",1,1013,0,"Baseline","None","None"
"820",9,5,694,52,"congruent",1,995,0,"Baseline","None","None"
"821",9,5,694,53,"congruent",1,861,0,"Baseline","None","None"
"822",9,5,694,54,"incongruent",1,885,0,"Baseline","None","None"
"823",9,5,694,55,"incongruent",1,549,0,"Baseline","None","None"
"824",9,5,694,56,"incongruent",1,1257,0,"Baseline","None","None"
"825",9,5,694,57,"incongruent",1,875,0,"Baseline","None","None"
"826",9,5,694,58,"congruent",1,1288,0,"Baseline","None","None"
"827",9,5,694,59,"congruent",0,1104,0,"Baseline","None","None"
"828",9,5,694,60,"incongruent",1,660,0,"Baseline","None","None"
"829",9,5,694,61,"incongruent",0,0,0,"Baseline","None","None"
"830",9,5,694,62,"incongruent",1,924,0,"Baseline","None","None"
"831",9,5,694,63,"incongruent",1,989,0,"Baseline","None","None"
"832",9,5,694,64,"incongruent",1,714,0,"Baseline","None","None"
"833",9,5,694,65,"incongruent",1,1262,0,"Baseline","None","None"
"834",9,5,694,66,"incongruent",1,996,0,"Baseline","None","None"
"835",9,5,694,67,"incongruent",1,1039,0,"Baseline","None","None"
"836",9,5,694,68,"congruent",1,792,0,"Baseline","None","None"
"837",9,5,694,69,"congruent",1,717,0,"Baseline","None","None"
"838",9,5,694,70,"incongruent",1,959,0,"Baseline","None","None"
"839",9,5,694,71,"congruent",1,877,0,"Baseline","None","None"
"840",9,5,694,72,"congruent",1,648,0,"Baseline","None","None"
"841",9,5,694,73,"incongruent",1,1396,0,"Baseline","None","None"
"842",9,5,694,74,"congruent",1,594,0,"Baseline","None","None"
"843",9,5,694,75,"incongruent",1,1272,0,"Baseline","None","None"
"844",9,5,694,76,"congruent",1,565,0,"Baseline","None","None"
"845",9,5,694,77,"incongruent",1,584,0,"Baseline","None","None"
"846",9,5,694,78,"incongruent",1,809,0,"Baseline","None","None"
"847",9,5,694,79,"incongruent",1,571,0,"Baseline","None","None"
"848",9,5,694,80,"congruent",1,711,0,"Baseline","None","None"
"849",9,5,694,81,"congruent",1,865,0,"Baseline","None","None"
"850",9,5,694,82,"incongruent",1,602,0,"Baseline","None","None"
"851",9,5,694,83,"congruent",1,644,0,"Baseline","None","None"
"852",9,5,694,84,"congruent",1,482,0,"Baseline","None","None"
"853",9,5,694,85,"congruent",1,432,0,"Baseline","None","None"
"854",9,5,694,86,"congruent",1,449,0,"Baseline","None","None"
"855",9,5,694,87,"incongruent",1,856,0,"Baseline","None","None"
"856",9,5,694,88,"congruent",1,591,0,"Baseline","None","None"
"857",9,5,694,89,"incongruent",0,830,0,"Baseline","None","None"
"858",9,5,694,90,"incongruent",1,979,0,"Baseline","None","None"
"859",9,5,694,91,"congruent",1,1893,0,"Baseline","None","None"
"860",9,5,694,92,"incongruent",1,573,0,"Baseline","None","None"
"861",9,5,694,93,"congruent",1,694,0,"Baseline","None","None"
"862",9,5,694,94,"congruent",1,1338,0,"Baseline","None","None"
"863",9,5,694,95,"congruent",1,448,0,"Baseline","None","None"
"864",9,5,694,96,"congruent",1,840,0,"Baseline","None","None"
"865",10,5,936,1,"congruent",1,937,0,"Baseline","None","None"
"866",10,5,936,2,"incongruent",1,1056,0,"Baseline","None","None"
"867",10,5,936,3,"congruent",1,911,0,"Baseline","None","None"
"868",10,5,936,4,"incongruent",0,959,0,"Baseline","None","None"
"869",10,5,936,5,"congruent",1,1101,0,"Baseline","None","None"
"870",10,5,936,6,"congruent",1,1107,0,"Baseline","None","None"
"871",10,5,936,7,"congruent",1,1279,0,"Baseline","None","None"
"872",10,5,936,8,"incongruent",1,497,0,"Baseline","None","None"
"873",10,5,936,9,"incongruent",1,665,0,"Baseline","None","None"
"874",10,5,936,10,"incongruent",1,1633,0,"Baseline","None","None"
"875",10,5,936,11,"congruent",1,923,0,"Baseline","None","None"
"876",10,5,936,12,"congruent",1,1143,0,"Baseline","None","None"
"877",10,5,936,13,"congruent",1,895,0,"Baseline","None","None"
"878",10,5,936,14,"congruent",1,1232,0,"Baseline","None","None"
"879",10,5,936,15,"congruent",1,888,0,"Baseline","None","None"
"880",10,5,936,16,"incongruent",1,1144,0,"Baseline","None","None"
"881",10,5,936,17,"incongruent",1,1476,0,"Baseline","None","None"
"882",10,5,936,18,"incongruent",1,1621,0,"Baseline","None","None"
"883",10,5,936,19,"congruent",1,881,0,"Baseline","None","None"
"884",10,5,936,20,"congruent",1,937,0,"Baseline","None","None"
"885",10,5,936,21,"congruent",0,1072,0,"Baseline","None","None"
"886",10,5,936,22,"incongruent",0,1603,0,"Baseline","None","None"
"887",10,5,936,23,"congruent",1,1172,0,"Baseline","None","None"
"888",10,5,936,24,"incongruent",1,1254,0,"Baseline","None","None"
"889",10,5,936,25,"congruent",1,835,0,"Baseline","None","None"
"890",10,5,936,26,"incongruent",0,0,0,"Baseline","None","None"
"891",10,5,936,27,"incongruent",1,1019,0,"Baseline","None","None"
"892",10,5,936,28,"congruent",1,854,0,"Baseline","None","None"
"893",10,5,936,29,"incongruent",1,933,0,"Baseline","None","None"
"894",10,5,936,30,"congruent",1,848,0,"Baseline","None","None"
"895",10,5,936,31,"incongruent",1,1118,0,"Baseline","None","None"
"896",10,5,936,32,"incongruent",1,1160,0,"Baseline","None","None"
"897",10,5,936,33,"incongruent",1,936,0,"Baseline","None","None"
"898",10,5,936,34,"incongruent",1,1126,0,"Baseline","None","None"
"899",10,5,936,35,"congruent",1,1711,0,"Baseline","None","None"
"900",10,5,936,36,"congruent",1,991,0,"Baseline","None","None"
"901",10,5,936,37,"congruent",1,666,0,"Baseline","None","None"
"902",10,5,936,38,"incongruent",1,1367,0,"Baseline","None","None"
"903",10,5,936,39,"congruent",1,1520,0,"Baseline","None","None"
"904",10,5,936,40,"congruent",1,1041,0,"Baseline","None","None"
"905",10,5,936,41,"incongruent",1,921,0,"Baseline","None","None"
"906",10,5,936,42,"incongruent",1,603,0,"Baseline","None","None"
"907",10,5,936,43,"congruent",1,1320,0,"Baseline","None","None"
"908",10,5,936,44,"congruent",1,974,0,"Baseline","None","None"
"909",10,5,936,45,"incongruent",1,1033,0,"Baseline","None","None"
"910",10,5,936,46,"congruent",1,827,0,"Baseline","None","None"
"911",10,5,936,47,"incongruent",1,783,0,"Baseline","None","None"
"912",10,5,936,48,"incongruent",1,1754,0,"Baseline","None","None"
"913",10,5,936,49,"congruent",0,0,0,"Baseline","None","None"
"914",10,5,936,50,"incongruent",1,691,0,"Baseline","None","None"
"915",10,5,936,51,"incongruent",1,965,0,"Baseline","None","None"
"916",10,5,936,52,"congruent",1,1408,0,"Baseline","None","None"
"917",10,5,936,53,"congruent",1,932,0,"Baseline","None","None"
"918",10,5,936,54,"incongruent",1,835,0,"Baseline","None","None"
"919",10,5,936,55,"incongruent",1,1200,0,"Baseline","None","None"
"920",10,5,936,56,"incongruent",1,888,0,"Baseline","None","None"
"921",10,5,936,57,"incongruent",1,1125,0,"Baseline","None","None"
"922",10,5,936,58,"congruent",1,998,0,"Baseline","None","None"
"923",10,5,936,59,"congruent",1,566,0,"Baseline","None","None"
"924",10,5,936,60,"incongruent",1,615,0,"Baseline","None","None"
"925",10,5,936,61,"incongruent",0,1002,0,"Baseline","None","None"
"926",10,5,936,62,"incongruent",1,1548,0,"Baseline","None","None"
"927",10,5,936,63,"incongruent",0,1446,0,"Baseline","None","None"
"928",10,5,936,64,"incongruent",1,1202,0,"Baseline","None","None"
"929",10,5,936,65,"incongruent",1,1011,0,"Baseline","None","None"
"930",10,5,936,66,"incongruent",1,819,0,"Baseline","None","None"
"931",10,5,936,67,"incongruent",1,1656,0,"Baseline","None","None"
"932",10,5,936,68,"congruent",1,1306,0,"Baseline","None","None"
"933",10,5,936,69,"congruent",1,1091,0,"Baseline","None","None"
"934",10,5,936,70,"incongruent",1,834,0,"Baseline","None","None"
"935",10,5,936,71,"congruent",0,0,0,"Baseline","None","None"
"936",10,5,936,72,"congruent",1,1323,0,"Baseline","None","None"
"937",10,5,936,73,"incongruent",1,962,0,"Baseline","None","None"
"938",10,5,936,74,"congruent",1,1606,0,"Baseline","None","None"
"939",10,5,936,75,"incongruent",1,800,0,"Baseline","None","None"
"940",10,5,936,76,"congruent",1,1100,0,"Baseline","None","None"
"941",10,5,936,77,"incongruent",1,1016,0,"Baseline","None","None"
"942",10,5,936,78,"incongruent",1,1104,0,"Baseline","None","None"
"943",10,5,936,79,"incongruent",1,1303,0,"Baseline","None","None"
"944",10,5,936,80,"congruent",0,0,0,"Baseline","None","None"
"945",10,5,936,81,"congruent",1,1575,0,"Baseline","None","None"
"946",10,5,936,82,"incongruent",1,787,0,"Baseline","None","None"
"947",10,5,936,83,"congruent",1,962,0,"Baseline","None","None"
"948",10,5,936,84,"congruent",1,1034,0,"Baseline","None","None"
"949",10,5,936,85,"congruent",1,726,0,"Baseline","None","None"
"950",10,5,936,86,"congruent",1,694,0,"Baseline","None","None"
"951",10,5,936,87,"incongruent",0,1031,0,"Baseline","None","None"
"952",10,5,936,88,"congruent",1,1203,0,"Baseline","None","None"
"953",10,5,936,89,"incongruent",1,1388,0,"Baseline","None","None"
"954",10,5,936,90,"incongruent",0,1453,0,"Baseline","None","None"
"955",10,5,936,91,"congruent",1,1302,0,"Baseline","None","None"
"956",10,5,936,92,"incongruent",1,1135,0,"Baseline","None","None"
"957",10,5,936,93,"congruent",1,1001,0,"Baseline","None","None"
"958",10,5,936,94,"congruent",1,1394,0,"Baseline","None","None"
"959",10,5,936,95,"congruent",1,1413,0,"Baseline","None","None"
"960",10,5,936,96,"congruent",1,1140,0,"Baseline","None","None"
"961",11,5,479,1,"incongruent",1,507,0,"Baseline","None","None"
"962",11,5,479,2,"congruent",1,441,0,"Baseline","None","None"
"963",11,5,479,3,"incongruent",1,542,0,"Baseline","None","None"
"964",11,5,479,4,"congruent",1,543,0,"Baseline","None","None"
"965",11,5,479,5,"incongruent",1,560,0,"Baseline","None","None"
"966",11,5,479,6,"incongruent",1,521,0,"Baseline","None","None"
"967",11,5,479,7,"incongruent",1,631,0,"Baseline","None","None"
"968",11,5,479,8,"congruent",1,573,0,"Baseline","None","None"
"969",11,5,479,9,"congruent",1,977,0,"Baseline","None","None"
"970",11,5,479,10,"congruent",1,609,0,"Baseline","None","None"
"971",11,5,479,11,"incongruent",1,480,0,"Baseline","None","None"
"972",11,5,479,12,"incongruent",1,489,0,"Baseline","None","None"
"973",11,5,479,13,"incongruent",1,427,0,"Baseline","None","None"
"974",11,5,479,14,"incongruent",1,492,0,"Baseline","None","None"
"975",11,5,479,15,"incongruent",1,389,0,"Baseline","None","None"
"976",11,5,479,16,"congruent",1,445,0,"Baseline","None","None"
"977",11,5,479,17,"congruent",1,434,0,"Baseline","None","None"
"978",11,5,479,18,"congruent",1,693,0,"Baseline","None","None"
"979",11,5,479,19,"incongruent",1,606,0,"Baseline","None","None"
"980",11,5,479,20,"incongruent",1,558,0,"Baseline","None","None"
"981",11,5,479,21,"incongruent",1,580,0,"Baseline","None","None"
"982",11,5,479,22,"congruent",1,410,0,"Baseline","None","None"
"983",11,5,479,23,"incongruent",1,610,0,"Baseline","None","None"
"984",11,5,479,24,"congruent",1,450,0,"Baseline","None","None"
"985",11,5,479,25,"incongruent",1,439,0,"Baseline","None","None"
"986",11,5,479,26,"congruent",1,585,0,"Baseline","None","None"
"987",11,5,479,27,"congruent",1,523,0,"Baseline","None","None"
"988",11,5,479,28,"incongruent",1,555,0,"Baseline","None","None"
"989",11,5,479,29,"congruent",1,480,0,"Baseline","None","None"
"990",11,5,479,30,"incongruent",1,588,0,"Baseline","None","None"
"991",11,5,479,31,"congruent",1,540,0,"Baseline","None","None"
"992",11,5,479,32,"congruent",1,908,0,"Baseline","None","None"
"993",11,5,479,33,"congruent",1,654,0,"Baseline","None","None"
"994",11,5,479,34,"congruent",1,680,0,"Baseline","None","None"
"995",11,5,479,35,"incongruent",1,400,0,"Baseline","None","None"
"996",11,5,479,36,"incongruent",1,471,0,"Baseline","None","None"
"997",11,5,479,37,"incongruent",1,626,0,"Baseline","None","None"
"998",11,5,479,38,"congruent",1,591,0,"Baseline","None","None"
"999",11,5,479,39,"incongruent",1,558,0,"Baseline","None","None"
"1000",11,5,479,40,"incongruent",1,459,0,"Baseline","None","None"
"1001",11,5,479,41,"congruent",1,540,0,"Baseline","None","None"
"1002",11,5,479,42,"congruent",1,494,0,"Baseline","None","None"
"1003",11,5,479,43,"incongruent",1,424,0,"Baseline","None","None"
"1004",11,5,479,44,"incongruent",1,539,0,"Baseline","None","None"
"1005",11,5,479,45,"congruent",1,513,0,"Baseline","None","None"
"1006",11,5,479,46,"incongruent",1,408,0,"Baseline","None","None"
"1007",11,5,479,47,"congruent",1,479,0,"Baseline","None","None"
"1008",11,5,479,48,"congruent",1,897,0,"Baseline","None","None"
"1009",11,5,479,49,"incongruent",1,556,0,"Baseline","None","None"
"1010",11,5,479,50,"congruent",1,438,0,"Baseline","None","None"
"1011",11,5,479,51,"congruent",1,520,0,"Baseline","None","None"
"1012",11,5,479,52,"incongruent",1,489,0,"Baseline","None","None"
"1013",11,5,479,53,"incongruent",1,426,0,"Baseline","None","None"
"1014",11,5,479,54,"congruent",1,509,0,"Baseline","None","None"
"1015",11,5,479,55,"congruent",1,527,0,"Baseline","None","None"
"1016",11,5,479,56,"congruent",1,600,0,"Baseline","None","None"
"1017",11,5,479,57,"congruent",1,431,0,"Baseline","None","None"
"1018",11,5,479,58,"incongruent",1,615,0,"Baseline","None","None"
"1019",11,5,479,59,"incongruent",1,663,0,"Baseline","None","None"
"1020",11,5,479,60,"congruent",1,384,0,"Baseline","None","None"
"1021",11,5,479,61,"congruent",1,449,0,"Baseline","None","None"
"1022",11,5,479,62,"congruent",1,714,0,"Baseline","None","None"
"1023",11,5,479,63,"congruent",1,625,0,"Baseline","None","None"
"1024",11,5,479,64,"congruent",1,552,0,"Baseline","None","None"
"1025",11,5,479,65,"congruent",1,436,0,"Baseline","None","None"
"1026",11,5,479,66,"congruent",1,404,0,"Baseline","None","None"
"1027",11,5,479,67,"congruent",1,480,0,"Baseline","None","None"
"1028",11,5,479,68,"incongruent",1,412,0,"Baseline","None","None"
"1029",11,5,479,69,"incongruent",0,493,0,"Baseline","None","None"
"1030",11,5,479,70,"congruent",1,478,0,"Baseline","None","None"
"1031",11,5,479,71,"incongruent",1,763,0,"Baseline","None","None"
"1032",11,5,479,72,"incongruent",1,496,0,"Baseline","None","None"
"1033",11,5,479,73,"congruent",1,529,0,"Baseline","None","None"
"1034",11,5,479,74,"incongruent",1,486,0,"Baseline","None","None"
"1035",11,5,479,75,"congruent",1,1095,0,"Baseline","None","None"
"1036",11,5,479,76,"incongruent",1,465,0,"Baseline","None","None"
"1037",11,5,479,77,"congruent",1,474,0,"Baseline","None","None"
"1038",11,5,479,78,"congruent",1,566,0,"Baseline","None","None"
"1039",11,5,479,79,"congruent",1,529,0,"Baseline","None","None"
"1040",11,5,479,80,"incongruent",1,733,0,"Baseline","None","None"
"1041",11,5,479,81,"incongruent",1,503,0,"Baseline","None","None"
"1042",11,5,479,82,"congruent",1,633,0,"Baseline","None","None"
"1043",11,5,479,83,"incongruent",1,383,0,"Baseline","None","None"
"1044",11,5,479,84,"incongruent",1,513,0,"Baseline","None","None"
"1045",11,5,479,85,"incongruent",1,490,0,"Baseline","None","None"
"1046",11,5,479,86,"incongruent",0,1508,0,"Baseline","None","None"
"1047",11,5,479,87,"congruent",1,609,0,"Baseline","None","None"
"1048",11,5,479,88,"incongruent",1,1052,0,"Baseline","None","None"
"1049",11,5,479,89,"congruent",1,524,0,"Baseline","None","None"
"1050",11,5,479,90,"congruent",1,741,0,"Baseline","None","None"
"1051",11,5,479,91,"incongruent",1,465,0,"Baseline","None","None"
"1052",11,5,479,92,"congruent",1,421,0,"Baseline","None","None"
"1053",11,5,479,93,"incongruent",1,466,0,"Baseline","None","None"
"1054",11,5,479,94,"incongruent",1,541,0,"Baseline","None","None"
"1055",11,5,479,95,"incongruent",1,524,0,"Baseline","None","None"
"1056",11,5,479,96,"incongruent",1,852,0,"Baseline","None","None"
"1057",12,5,521,1,"incongruent",1,548,0,"Baseline","None","None"
"1058",12,5,521,2,"congruent",1,446,0,"Baseline","None","None"
"1059",12,5,521,3,"incongruent",1,465,0,"Baseline","None","None"
"1060",12,5,521,4,"congruent",1,453,0,"Baseline","None","None"
"1061",12,5,521,5,"incongruent",1,1383,0,"Baseline","None","None"
"1062",12,5,521,6,"incongruent",1,847,0,"Baseline","None","None"
"1063",12,5,521,7,"incongruent",1,538,0,"Baseline","None","None"
"1064",12,5,521,8,"congruent",1,440,0,"Baseline","None","None"
"1065",12,5,521,9,"congruent",1,492,0,"Baseline","None","None"
"1066",12,5,521,10,"congruent",1,496,0,"Baseline","None","None"
"1067",12,5,521,11,"incongruent",1,612,0,"Baseline","None","None"
"1068",12,5,521,12,"incongruent",1,585,0,"Baseline","None","None"
"1069",12,5,521,13,"incongruent",1,576,0,"Baseline","None","None"
"1070",12,5,521,14,"incongruent",1,498,0,"Baseline","None","None"
"1071",12,5,521,15,"incongruent",1,521,0,"Baseline","None","None"
"1072",12,5,521,16,"congruent",1,1446,0,"Baseline","None","None"
"1073",12,5,521,17,"congruent",1,542,0,"Baseline","None","None"
"1074",12,5,521,18,"congruent",1,803,0,"Baseline","None","None"
"1075",12,5,521,19,"incongruent",1,525,0,"Baseline","None","None"
"1076",12,5,521,20,"incongruent",1,569,0,"Baseline","None","None"
"1077",12,5,521,21,"incongruent",1,497,0,"Baseline","None","None"
"1078",12,5,521,22,"congruent",1,774,0,"Baseline","None","None"
"1079",12,5,521,23,"incongruent",1,1282,0,"Baseline","None","None"
"1080",12,5,521,24,"congruent",1,585,0,"Baseline","None","None"
"1081",12,5,521,25,"incongruent",1,522,0,"Baseline","None","None"
"1082",12,5,521,26,"congruent",1,440,0,"Baseline","None","None"
"1083",12,5,521,27,"congruent",1,1255,0,"Baseline","None","None"
"1084",12,5,521,28,"incongruent",0,1170,0,"Baseline","None","None"
"1085",12,5,521,29,"congruent",1,489,0,"Baseline","None","None"
"1086",12,5,521,30,"incongruent",0,1076,0,"Baseline","None","None"
"1087",12,5,521,31,"congruent",1,1251,0,"Baseline","None","None"
"1088",12,5,521,32,"congruent",1,937,0,"Baseline","None","None"
"1089",12,5,521,33,"congruent",1,503,0,"Baseline","None","None"
"1090",12,5,521,34,"congruent",1,498,0,"Baseline","None","None"
"1091",12,5,521,35,"incongruent",1,461,0,"Baseline","None","None"
"1092",12,5,521,36,"incongruent",1,533,0,"Baseline","None","None"
"1093",12,5,521,37,"incongruent",1,1088,0,"Baseline","None","None"
"1094",12,5,521,38,"congruent",1,631,0,"Baseline","None","None"
"1095",12,5,521,39,"incongruent",1,617,0,"Baseline","None","None"
"1096",12,5,521,40,"incongruent",1,453,0,"Baseline","None","None"
"1097",12,5,521,41,"congruent",1,415,0,"Baseline","None","None"
"1098",12,5,521,42,"congruent",1,573,0,"Baseline","None","None"
"1099",12,5,521,43,"incongruent",1,594,0,"Baseline","None","None"
"1100",12,5,521,44,"incongruent",1,623,0,"Baseline","None","None"
"1101",12,5,521,45,"congruent",1,1907,0,"Baseline","None","None"
"1102",12,5,521,46,"incongruent",1,538,0,"Baseline","None","None"
"1103",12,5,521,47,"congruent",1,1540,0,"Baseline","None","None"
"1104",12,5,521,48,"congruent",1,485,0,"Baseline","None","None"
"1105",12,5,521,49,"incongruent",1,1016,0,"Baseline","None","None"
"1106",12,5,521,50,"congruent",1,1043,0,"Baseline","None","None"
"1107",12,5,521,51,"congruent",1,493,0,"Baseline","None","None"
"1108",12,5,521,52,"incongruent",1,743,0,"Baseline","None","None"
"1109",12,5,521,53,"incongruent",1,671,0,"Baseline","None","None"
"1110",12,5,521,54,"congruent",1,964,0,"Baseline","None","None"
"1111",12,5,521,55,"congruent",1,593,0,"Baseline","None","None"
"1112",12,5,521,56,"congruent",1,1083,0,"Baseline","None","None"
"1113",12,5,521,57,"congruent",1,596,0,"Baseline","None","None"
"1114",12,5,521,58,"incongruent",1,1623,0,"Baseline","None","None"
"1115",12,5,521,59,"incongruent",1,557,0,"Baseline","None","None"
"1116",12,5,521,60,"congruent",1,489,0,"Baseline","None","None"
"1117",12,5,521,61,"congruent",1,375,0,"Baseline","None","None"
"1118",12,5,521,62,"congruent",1,409,0,"Baseline","None","None"
"1119",12,5,521,63,"congruent",1,525,0,"Baseline","None","None"
"1120",12,5,521,64,"congruent",1,484,0,"Baseline","None","None"
"1121",12,5,521,65,"congruent",1,765,0,"Baseline","None","None"
"1122",12,5,521,66,"congruent",1,469,0,"Baseline","None","None"
"1123",12,5,521,67,"congruent",1,548,0,"Baseline","None","None"
"1124",12,5,521,68,"incongruent",1,1204,0,"Baseline","None","None"
"1125",12,5,521,69,"incongruent",1,1072,0,"Baseline","None","None"
"1126",12,5,521,70,"congruent",1,553,0,"Baseline","None","None"
"1127",12,5,521,71,"incongruent",1,346,0,"Baseline","None","None"
"1128",12,5,521,72,"incongruent",1,651,0,"Baseline","None","None"
"1129",12,5,521,73,"congruent",1,756,0,"Baseline","None","None"
"1130",12,5,521,74,"incongruent",1,392,0,"Baseline","None","None"
"1131",12,5,521,75,"congruent",0,0,0,"Baseline","None","None"
"1132",12,5,521,76,"incongruent",1,1045,0,"Baseline","None","None"
"1133",12,5,521,77,"congruent",1,437,0,"Baseline","None","None"
"1134",12,5,521,78,"congruent",1,545,0,"Baseline","None","None"
"1135",12,5,521,79,"congruent",1,690,0,"Baseline","None","None"
"1136",12,5,521,80,"incongruent",1,688,0,"Baseline","None","None"
"1137",12,5,521,81,"incongruent",1,568,0,"Baseline","None","None"
"1138",12,5,521,82,"congruent",1,592,0,"Baseline","None","None"
"1139",12,5,521,83,"incongruent",1,1177,0,"Baseline","None","None"
"1140",12,5,521,84,"incongruent",1,646,0,"Baseline","None","None"
"1141",12,5,521,85,"incongruent",1,969,0,"Baseline","None","None"
"1142",12,5,521,86,"incongruent",1,539,0,"Baseline","None","None"
"1143",12,5,521,87,"congruent",1,665,0,"Baseline","None","None"
"1144",12,5,521,88,"incongruent",1,521,0,"Baseline","None","None"
"1145",12,5,521,89,"congruent",1,610,0,"Baseline","None","None"
"1146",12,5,521,90,"congruent",1,364,0,"Baseline","None","None"
"1147",12,5,521,91,"incongruent",1,1772,0,"Baseline","None","None"
"1148",12,5,521,92,"congruent",1,376,0,"Baseline","None","None"
"1149",12,5,521,93,"incongruent",1,804,0,"Baseline","None","None"
"1150",12,5,521,94,"incongruent",1,555,0,"Baseline","None","None"
"1151",12,5,521,95,"incongruent",1,456,0,"Baseline","None","None"
"1152",12,5,521,96,"incongruent",0,1489,0,"Baseline","None","None"
"1153",13,5,677,1,"congruent",1,710,0,"Baseline","None","None"
"1154",13,5,677,2,"incongruent",1,1308,0,"Baseline","None","None"
"1155",13,5,677,3,"congruent",1,531,0,"Baseline","None","None"
"1156",13,5,677,4,"incongruent",1,520,0,"Baseline","None","None"
"1157",13,5,677,5,"congruent",1,1031,0,"Baseline","None","None"
"1158",13,5,677,6,"congruent",1,579,0,"Baseline","None","None"
"1159",13,5,677,7,"congruent",1,1042,0,"Baseline","None","None"
"1160",13,5,677,8,"incongruent",1,858,0,"Baseline","None","None"
"1161",13,5,677,9,"incongruent",1,540,0,"Baseline","None","None"
"1162",13,5,677,10,"incongruent",1,1208,0,"Baseline","None","None"
"1163",13,5,677,11,"congruent",1,703,0,"Baseline","None","None"
"1164",13,5,677,12,"congruent",0,1563,0,"Baseline","None","None"
"1165",13,5,677,13,"congruent",1,1002,0,"Baseline","None","None"
"1166",13,5,677,14,"congruent",1,750,0,"Baseline","None","None"
"1167",13,5,677,15,"congruent",1,1217,0,"Baseline","None","None"
"1168",13,5,677,16,"incongruent",1,469,0,"Baseline","None","None"
"1169",13,5,677,17,"incongruent",1,862,0,"Baseline","None","None"
"1170",13,5,677,18,"incongruent",1,1097,0,"Baseline","None","None"
"1171",13,5,677,19,"congruent",1,992,0,"Baseline","None","None"
"1172",13,5,677,20,"congruent",1,502,0,"Baseline","None","None"
"1173",13,5,677,21,"congruent",1,622,0,"Baseline","None","None"
"1174",13,5,677,22,"incongruent",1,615,0,"Baseline","None","None"
"1175",13,5,677,23,"congruent",1,844,0,"Baseline","None","None"
"1176",13,5,677,24,"incongruent",1,588,0,"Baseline","None","None"
"1177",13,5,677,25,"congruent",1,1032,0,"Baseline","None","None"
"1178",13,5,677,26,"incongruent",1,1585,0,"Baseline","None","None"
"1179",13,5,677,27,"incongruent",1,871,0,"Baseline","None","None"
"1180",13,5,677,28,"congruent",1,958,0,"Baseline","None","None"
"1181",13,5,677,29,"incongruent",1,669,0,"Baseline","None","None"
"1182",13,5,677,30,"congruent",1,789,0,"Baseline","None","None"
"1183",13,5,677,31,"incongruent",1,907,0,"Baseline","None","None"
"1184",13,5,677,32,"incongruent",1,1253,0,"Baseline","None","None"
"1185",13,5,677,33,"incongruent",1,931,0,"Baseline","None","None"
"1186",13,5,677,34,"incongruent",1,475,0,"Baseline","None","None"
"1187",13,5,677,35,"congruent",1,1660,0,"Baseline","None","None"
"1188",13,5,677,36,"congruent",1,642,0,"Baseline","None","None"
"1189",13,5,677,37,"congruent",1,528,0,"Baseline","None","None"
"1190",13,5,677,38,"incongruent",1,507,0,"Baseline","None","None"
"1191",13,5,677,39,"congruent",1,1272,0,"Baseline","None","None"
"1192",13,5,677,40,"congruent",1,1609,0,"Baseline","None","None"
"1193",13,5,677,41,"incongruent",1,649,0,"Baseline","None","None"
"1194",13,5,677,42,"incongruent",1,677,0,"Baseline","None","None"
"1195",13,5,677,43,"congruent",1,606,0,"Baseline","None","None"
"1196",13,5,677,44,"congruent",1,829,0,"Baseline","None","None"
"1197",13,5,677,45,"incongruent",1,995,0,"Baseline","None","None"
"1198",13,5,677,46,"congruent",1,1383,0,"Baseline","None","None"
"1199",13,5,677,47,"incongruent",1,886,0,"Baseline","None","None"
"1200",13,5,677,48,"incongruent",1,598,0,"Baseline","None","None"
"1201",13,5,677,49,"congruent",1,645,0,"Baseline","None","None"
"1202",13,5,677,50,"incongruent",1,1538,0,"Baseline","None","None"
"1203",13,5,677,51,"incongruent",1,814,0,"Baseline","None","None"
"1204",13,5,677,52,"congruent",1,938,0,"Baseline","None","None"
"1205",13,5,677,53,"congruent",1,771,0,"Baseline","None","None"
"1206",13,5,677,54,"incongruent",1,1659,0,"Baseline","None","None"
"1207",13,5,677,55,"incongruent",1,1531,0,"Baseline","None","None"
"1208",13,5,677,56,"incongruent",1,555,0,"Baseline","None","None"
"1209",13,5,677,57,"incongruent",1,1754,0,"Baseline","None","None"
"1210",13,5,677,58,"congruent",1,1323,0,"Baseline","None","None"
"1211",13,5,677,59,"congruent",1,455,0,"Baseline","None","None"
"1212",13,5,677,60,"incongruent",1,718,0,"Baseline","None","None"
"1213",13,5,677,61,"incongruent",1,1240,0,"Baseline","None","None"
"1214",13,5,677,62,"incongruent",1,1143,0,"Baseline","None","None"
"1215",13,5,677,63,"incongruent",1,1274,0,"Baseline","None","None"
"1216",13,5,677,64,"incongruent",1,1196,0,"Baseline","None","None"
"1217",13,5,677,65,"incongruent",0,1732,0,"Baseline","None","None"
"1218",13,5,677,66,"incongruent",1,1397,0,"Baseline","None","None"
"1219",13,5,677,67,"incongruent",1,450,0,"Baseline","None","None"
"1220",13,5,677,68,"congruent",1,839,0,"Baseline","None","None"
"1221",13,5,677,69,"congruent",1,761,0,"Baseline","None","None"
"1222",13,5,677,70,"incongruent",1,1299,0,"Baseline","None","None"
"1223",13,5,677,71,"congruent",1,1246,0,"Baseline","None","None"
"1224",13,5,677,72,"congruent",1,1642,0,"Baseline","None","None"
"1225",13,5,677,73,"incongruent",1,794,0,"Baseline","None","None"
"1226",13,5,677,74,"congruent",1,1086,0,"Baseline","None","None"
"1227",13,5,677,75,"incongruent",1,1843,0,"Baseline","None","None"
"1228",13,5,677,76,"congruent",1,825,0,"Baseline","None","None"
"1229",13,5,677,77,"incongruent",1,551,0,"Baseline","None","None"
"1230",13,5,677,78,"incongruent",1,1404,0,"Baseline","None","None"
"1231",13,5,677,79,"incongruent",1,577,0,"Baseline","None","None"
"1232",13,5,677,80,"congruent",1,1464,0,"Baseline","None","None"
"1233",13,5,677,81,"congruent",1,405,0,"Baseline","None","None"
"1234",13,5,677,82,"incongruent",1,649,0,"Baseline","None","None"
"1235",13,5,677,83,"congruent",1,1893,0,"Baseline","None","None"
"1236",13,5,677,84,"congruent",1,756,0,"Baseline","None","None"
"1237",13,5,677,85,"congruent",1,1083,0,"Baseline","None","None"
"1238",13,5,677,86,"congruent",1,575,0,"Baseline","None","None"
"1239",13,5,677,87,"incongruent",1,1100,0,"Baseline","None","None"
"1240",13,5,677,88,"congruent",1,1300,0,"Baseline","None","None"
"1241",13,5,677,89,"incongruent",1,1065,0,"Baseline","None","None"
"1242",13,5,677,90,"incongruent",0,0,0,"Baseline","None","None"
"1243",13,5,677,91,"congruent",1,585,0,"Baseline","None","None"
"1244",13,5,677,92,"incongruent",1,472,0,"Baseline","None","None"
"1245",13,5,677,93,"congruent",1,714,0,"Baseline","None","None"
"1246",13,5,677,94,"congruent",1,947,0,"Baseline","None","None"
"1247",13,5,677,95,"congruent",1,882,0,"Baseline","None","None"
"1248",13,5,677,96,"congruent",1,1275,0,"Baseline","None","None"
"1249",14,5,811,1,"congruent",1,752,0,"Baseline","None","None"
"1250",14,5,811,2,"incongruent",1,665,0,"Baseline","None","None"
"1251",14,5,811,3,"congruent",0,694,0,"Baseline","None","None"
"1252",14,5,811,4,"incongruent",1,1163,0,"Baseline","None","None"
"1253",14,5,811,5,"congruent",1,1267,0,"Baseline","None","None"
"1254",14,5,811,6,"congruent",0,651,0,"Baseline","None","None"
"1255",14,5,811,7,"congruent",1,628,0,"Baseline","None","None"
"1256",14,5,811,8,"incongruent",1,931,0,"Baseline","None","None"
"1257",14,5,811,9,"incongruent",1,1439,0,"Baseline","None","None"
"1258",14,5,811,10,"incongruent",0,1661,0,"Baseline","None","None"
"1259",14,5,811,11,"congruent",1,1757,0,"Baseline","None","None"
"1260",14,5,811,12,"congruent",1,1243,0,"Baseline","None","None"
"1261",14,5,811,13,"congruent",1,1139,0,"Baseline","None","None"
"1262",14,5,811,14,"congruent",1,1246,0,"Baseline","None","None"
"1263",14,5,811,15,"congruent",0,722,0,"Baseline","None","None"
"1264",14,5,811,16,"incongruent",1,930,0,"Baseline","None","None"
"1265",14,5,811,17,"incongruent",1,700,0,"Baseline","None","None"
"1266",14,5,811,18,"incongruent",1,853,0,"Baseline","None","None"
"1267",14,5,811,19,"congruent",0,757,0,"Baseline","None","None"
"1268",14,5,811,20,"congruent",0,1503,0,"Baseline","None","None"
"1269",14,5,811,21,"congruent",1,986,0,"Baseline","None","None"
"1270",14,5,811,22,"incongruent",1,1345,0,"Baseline","None","None"
"1271",14,5,811,23,"congruent",1,1160,0,"Baseline","None","None"
"1272",14,5,811,24,"incongruent",1,1273,0,"Baseline","None","None"
"1273",14,5,811,25,"congruent",1,1154,0,"Baseline","None","None"
"1274",14,5,811,26,"incongruent",1,727,0,"Baseline","None","None"
"1275",14,5,811,27,"incongruent",1,1373,0,"Baseline","None","None"
"1276",14,5,811,28,"congruent",1,1017,0,"Baseline","None","None"
"1277",14,5,811,29,"incongruent",1,1274,0,"Baseline","None","None"
"1278",14,5,811,30,"congruent",1,1332,0,"Baseline","None","None"
"1279",14,5,811,31,"incongruent",0,0,0,"Baseline","None","None"
"1280",14,5,811,32,"incongruent",1,1313,0,"Baseline","None","None"
"1281",14,5,811,33,"incongruent",1,857,0,"Baseline","None","None"
"1282",14,5,811,34,"incongruent",1,1368,0,"Baseline","None","None"
"1283",14,5,811,35,"congruent",1,1177,0,"Baseline","None","None"
"1284",14,5,811,36,"congruent",1,703,0,"Baseline","None","None"
"1285",14,5,811,37,"congruent",1,1566,0,"Baseline","None","None"
"1286",14,5,811,38,"incongruent",1,1039,0,"Baseline","None","None"
"1287",14,5,811,39,"congruent",1,691,0,"Baseline","None","None"
"1288",14,5,811,40,"congruent",1,824,0,"Baseline","None","None"
"1289",14,5,811,41,"incongruent",1,1243,0,"Baseline","None","None"
"1290",14,5,811,42,"incongruent",1,647,0,"Baseline","None","None"
"1291",14,5,811,43,"congruent",1,953,0,"Baseline","None","None"
"1292",14,5,811,44,"congruent",1,855,0,"Baseline","None","None"
"1293",14,5,811,45,"incongruent",1,999,0,"Baseline","None","None"
"1294",14,5,811,46,"congruent",1,1713,0,"Baseline","None","None"
"1295",14,5,811,47,"incongruent",1,1003,0,"Baseline","None","None"
"1296",14,5,811,48,"incongruent",1,664,0,"Baseline","None","None"
"1297",14,5,811,49,"congruent",1,643,0,"Baseline","None","None"
"1298",14,5,811,50,"incongruent",1,804,0,"Baseline","None","None"
"1299",14,5,811,51,"incongruent",1,1392,0,"Baseline","None","None"
"1300",14,5,811,52,"congruent",1,811,0,"Baseline","None","None"
"1301",14,5,811,53,"congruent",1,938,0,"Baseline","None","None"
"1302",14,5,811,54,"incongruent",1,765,0,"Baseline","None","None"
"1303",14,5,811,55,"incongruent",1,707,0,"Baseline","None","None"
"1304",14,5,811,56,"incongruent",1,708,0,"Baseline","None","None"
"1305",14,5,811,57,"incongruent",1,1466,0,"Baseline","None","None"
"1306",14,5,811,58,"congruent",1,803,0,"Baseline","None","None"
"1307",14,5,811,59,"congruent",1,973,0,"Baseline","None","None"
"1308",14,5,811,60,"incongruent",1,832,0,"Baseline","None","None"
"1309",14,5,811,61,"incongruent",1,1284,0,"Baseline","None","None"
"1310",14,5,811,62,"incongruent",1,555,0,"Baseline","None","None"
"1311",14,5,811,63,"incongruent",1,822,0,"Baseline","None","None"
"1312",14,5,811,64,"incongruent",1,626,0,"Baseline","None","None"
"1313",14,5,811,65,"incongruent",0,803,0,"Baseline","None","None"
"1314",14,5,811,66,"incongruent",1,1424,0,"Baseline","None","None"
"1315",14,5,811,67,"incongruent",1,811,0,"Baseline","None","None"
"1316",14,5,811,68,"congruent",1,621,0,"Baseline","None","None"
"1317",14,5,811,69,"congruent",1,611,0,"Baseline","None","None"
"1318",14,5,811,70,"incongruent",0,1155,0,"Baseline","None","None"
"1319",14,5,811,71,"congruent",1,1334,0,"Baseline","None","None"
"1320",14,5,811,72,"congruent",0,1114,0,"Baseline","None","None"
"1321",14,5,811,73,"incongruent",0,1106,0,"Baseline","None","None"
"1322",14,5,811,74,"congruent",1,959,0,"Baseline","None","None"
"1323",14,5,811,75,"incongruent",0,1491,0,"Baseline","None","None"
"1324",14,5,811,76,"congruent",1,562,0,"Baseline","None","None"
"1325",14,5,811,77,"incongruent",1,450,0,"Baseline","None","None"
"1326",14,5,811,78,"incongruent",1,467,0,"Baseline","None","None"
"1327",14,5,811,79,"incongruent",0,1287,0,"Baseline","None","None"
"1328",14,5,811,80,"congruent",1,811,0,"Baseline","None","None"
"1329",14,5,811,81,"congruent",1,1055,0,"Baseline","None","None"
"1330",14,5,811,82,"incongruent",1,1671,0,"Baseline","None","None"
"1331",14,5,811,83,"congruent",1,1041,0,"Baseline","None","None"
"1332",14,5,811,84,"congruent",1,739,0,"Baseline","None","None"
"1333",14,5,811,85,"congruent",1,1943,0,"Baseline","None","None"
"1334",14,5,811,86,"congruent",1,1495,0,"Baseline","None","None"
"1335",14,5,811,87,"incongruent",1,1296,0,"Baseline","None","None"
"1336",14,5,811,88,"congruent",1,939,0,"Baseline","None","None"
"1337",14,5,811,89,"incongruent",1,1912,0,"Baseline","None","None"
"1338",14,5,811,90,"incongruent",0,1160,0,"Baseline","None","None"
"1339",14,5,811,91,"congruent",1,1157,0,"Baseline","None","None"
"1340",14,5,811,92,"incongruent",1,697,0,"Baseline","None","None"
"1341",14,5,811,93,"congruent",1,716,0,"Baseline","None","None"
"1342",14,5,811,94,"congruent",1,1060,0,"Baseline","None","None"
"1343",14,5,811,95,"congruent",1,718,0,"Baseline","None","None"
"1344",14,5,811,96,"congruent",0,767,0,"Baseline","None","None"
"1345",15,5,604,1,"incongruent",1,552,0,"Baseline","None","None"
"1346",15,5,604,2,"congruent",1,604,0,"Baseline","None","None"
"1347",15,5,604,3,"incongruent",1,532,0,"Baseline","None","None"
"1348",15,5,604,4,"congruent",1,1235,0,"Baseline","None","None"
"1349",15,5,604,5,"incongruent",0,648,0,"Baseline","None","None"
"1350",15,5,604,6,"incongruent",1,561,0,"Baseline","None","None"
"1351",15,5,604,7,"incongruent",1,754,0,"Baseline","None","None"
"1352",15,5,604,8,"congruent",1,492,0,"Baseline","None","None"
"1353",15,5,604,9,"congruent",1,628,0,"Baseline","None","None"
"1354",15,5,604,10,"congruent",1,549,0,"Baseline","None","None"
"1355",15,5,604,11,"incongruent",1,570,0,"Baseline","None","None"
"1356",15,5,604,12,"incongruent",1,766,0,"Baseline","None","None"
"1357",15,5,604,13,"incongruent",1,983,0,"Baseline","None","None"
"1358",15,5,604,14,"incongruent",1,800,0,"Baseline","None","None"
"1359",15,5,604,15,"incongruent",0,1242,0,"Baseline","None","None"
"1360",15,5,604,16,"congruent",1,539,0,"Baseline","None","None"
"1361",15,5,604,17,"congruent",1,1093,0,"Baseline","None","None"
"1362",15,5,604,18,"congruent",1,648,0,"Baseline","None","None"
"1363",15,5,604,19,"incongruent",0,649,0,"Baseline","None","None"
"1364",15,5,604,20,"incongruent",1,1377,0,"Baseline","None","None"
"1365",15,5,604,21,"incongruent",1,1215,0,"Baseline","None","None"
"1366",15,5,604,22,"congruent",1,558,0,"Baseline","None","None"
"1367",15,5,604,23,"incongruent",1,642,0,"Baseline","None","None"
"1368",15,5,604,24,"congruent",1,444,0,"Baseline","None","None"
"1369",15,5,604,25,"incongruent",1,682,0,"Baseline","None","None"
"1370",15,5,604,26,"congruent",1,593,0,"Baseline","None","None"
"1371",15,5,604,27,"congruent",0,661,0,"Baseline","None","None"
"1372",15,5,604,28,"incongruent",1,628,0,"Baseline","None","None"
"1373",15,5,604,29,"congruent",1,639,0,"Baseline","None","None"
"1374",15,5,604,30,"incongruent",1,1586,0,"Baseline","None","None"
"1375",15,5,604,31,"congruent",1,1036,0,"Baseline","None","None"
"1376",15,5,604,32,"congruent",1,566,0,"Baseline","None","None"
"1377",15,5,604,33,"congruent",1,791,0,"Baseline","None","None"
"1378",15,5,604,34,"congruent",1,904,0,"Baseline","None","None"
"1379",15,5,604,35,"incongruent",1,1063,0,"Baseline","None","None"
"1380",15,5,604,36,"incongruent",1,742,0,"Baseline","None","None"
"1381",15,5,604,37,"incongruent",1,1400,0,"Baseline","None","None"
"1382",15,5,604,38,"congruent",1,1553,0,"Baseline","None","None"
"1383",15,5,604,39,"incongruent",0,374,0,"Baseline","None","None"
"1384",15,5,604,40,"incongruent",1,511,0,"Baseline","None","None"
"1385",15,5,604,41,"congruent",1,630,0,"Baseline","None","None"
"1386",15,5,604,42,"congruent",1,550,0,"Baseline","None","None"
"1387",15,5,604,43,"incongruent",1,464,0,"Baseline","None","None"
"1388",15,5,604,44,"incongruent",1,747,0,"Baseline","None","None"
"1389",15,5,604,45,"congruent",1,628,0,"Baseline","None","None"
"1390",15,5,604,46,"incongruent",1,618,0,"Baseline","None","None"
"1391",15,5,604,47,"congruent",1,1004,0,"Baseline","None","None"
"1392",15,5,604,48,"congruent",1,760,0,"Baseline","None","None"
"1393",15,5,604,49,"incongruent",1,954,0,"Baseline","None","None"
"1394",15,5,604,50,"congruent",1,787,0,"Baseline","None","None"
"1395",15,5,604,51,"congruent",1,919,0,"Baseline","None","None"
"1396",15,5,604,52,"incongruent",0,1335,0,"Baseline","None","None"
"1397",15,5,604,53,"incongruent",1,1397,0,"Baseline","None","None"
"1398",15,5,604,54,"congruent",0,539,0,"Baseline","None","None"
"1399",15,5,604,55,"congruent",1,1334,0,"Baseline","None","None"
"1400",15,5,604,56,"congruent",1,670,0,"Baseline","None","None"
"1401",15,5,604,57,"congruent",1,1595,0,"Baseline","None","None"
"1402",15,5,604,58,"incongruent",1,1134,0,"Baseline","None","None"
"1403",15,5,604,59,"incongruent",1,1094,0,"Baseline","None","None"
"1404",15,5,604,60,"congruent",1,1458,0,"Baseline","None","None"
"1405",15,5,604,61,"congruent",1,484,0,"Baseline","None","None"
"1406",15,5,604,62,"congruent",1,690,0,"Baseline","None","None"
"1407",15,5,604,63,"congruent",1,960,0,"Baseline","None","None"
"1408",15,5,604,64,"congruent",1,523,0,"Baseline","None","None"
"1409",15,5,604,65,"congruent",1,341,0,"Baseline","None","None"
"1410",15,5,604,66,"congruent",1,587,0,"Baseline","None","None"
"1411",15,5,604,67,"congruent",1,1252,0,"Baseline","None","None"
"1412",15,5,604,68,"incongruent",1,555,0,"Baseline","None","None"
"1413",15,5,604,69,"incongruent",1,794,0,"Baseline","None","None"
"1414",15,5,604,70,"congruent",0,1380,0,"Baseline","None","None"
"1415",15,5,604,71,"incongruent",1,1316,0,"Baseline","None","None"
"1416",15,5,604,72,"incongruent",1,1144,0,"Baseline","None","None"
"1417",15,5,604,73,"congruent",1,1055,0,"Baseline","None","None"
"1418",15,5,604,74,"incongruent",0,584,0,"Baseline","None","None"
"1419",15,5,604,75,"congruent",1,655,0,"Baseline","None","None"
"1420",15,5,604,76,"incongruent",1,420,0,"Baseline","None","None"
"1421",15,5,604,77,"congruent",1,680,0,"Baseline","None","None"
"1422",15,5,604,78,"congruent",1,967,0,"Baseline","None","None"
"1423",15,5,604,79,"congruent",1,511,0,"Baseline","None","None"
"1424",15,5,604,80,"incongruent",1,686,0,"Baseline","None","None"
"1425",15,5,604,81,"incongruent",1,481,0,"Baseline","None","None"
"1426",15,5,604,82,"congruent",1,527,0,"Baseline","None","None"
"1427",15,5,604,83,"incongruent",0,1280,0,"Baseline","None","None"
"1428",15,5,604,84,"incongruent",1,431,0,"Baseline","None","None"
"1429",15,5,604,85,"incongruent",1,753,0,"Baseline","None","None"
"1430",15,5,604,86,"incongruent",1,855,0,"Baseline","None","None"
"1431",15,5,604,87,"congruent",1,522,0,"Baseline","None","None"
"1432",15,5,604,88,"incongruent",1,1230,0,"Baseline","None","None"
"1433",15,5,604,89,"congruent",1,694,0,"Baseline","None","None"
"1434",15,5,604,90,"congruent",1,380,0,"Baseline","None","None"
"1435",15,5,604,91,"incongruent",1,860,0,"Baseline","None","None"
"1436",15,5,604,92,"congruent",1,637,0,"Baseline","None","None"
"1437",15,5,604,93,"incongruent",1,1628,0,"Baseline","None","None"
"1438",15,5,604,94,"incongruent",1,577,0,"Baseline","None","None"
"1439",15,5,604,95,"incongruent",1,1016,0,"Baseline","None","None"
"1440",15,5,604,96,"incongruent",1,580,0,"Baseline","None","None"
"1441",16,5,906,1,"congruent",1,1000,0,"Baseline","None","None"
"1442",16,5,906,2,"incongruent",1,720,0,"Baseline","None","None"
"1443",16,5,906,3,"congruent",1,1157,0,"Baseline","None","None"
"1444",16,5,906,4,"incongruent",1,1652,0,"Baseline","None","None"
"1445",16,5,906,5,"congruent",0,1704,0,"Baseline","None","None"
"1446",16,5,906,6,"congruent",1,1289,0,"Baseline","None","None"
"1447",16,5,906,7,"congruent",1,1050,0,"Baseline","None","None"
"1448",16,5,906,8,"incongruent",1,1388,0,"Baseline","None","None"
"1449",16,5,906,9,"incongruent",0,1179,0,"Baseline","None","None"
"1450",16,5,906,10,"incongruent",1,754,0,"Baseline","None","None"
"1451",16,5,906,11,"congruent",1,1863,0,"Baseline","None","None"
"1452",16,5,906,12,"congruent",0,840,0,"Baseline","None","None"
"1453",16,5,906,13,"congruent",1,803,0,"Baseline","None","None"
"1454",16,5,906,14,"congruent",1,1342,0,"Baseline","None","None"
"1455",16,5,906,15,"congruent",1,1637,0,"Baseline","None","None"
"1456",16,5,906,16,"incongruent",1,801,0,"Baseline","None","None"
"1457",16,5,906,17,"incongruent",1,1514,0,"Baseline","None","None"
"1458",16,5,906,18,"incongruent",0,0,0,"Baseline","None","None"
"1459",16,5,906,19,"congruent",1,1719,0,"Baseline","None","None"
"1460",16,5,906,20,"congruent",1,917,0,"Baseline","None","None"
"1461",16,5,906,21,"congruent",1,852,0,"Baseline","None","None"
"1462",16,5,906,22,"incongruent",0,1508,0,"Baseline","None","None"
"1463",16,5,906,23,"congruent",0,920,0,"Baseline","None","None"
"1464",16,5,906,24,"incongruent",0,1381,0,"Baseline","None","None"
"1465",16,5,906,25,"congruent",0,0,0,"Baseline","None","None"
"1466",16,5,906,26,"incongruent",1,715,0,"Baseline","None","None"
"1467",16,5,906,27,"incongruent",0,0,0,"Baseline","None","None"
"1468",16,5,906,28,"congruent",1,854,0,"Baseline","None","None"
"1469",16,5,906,29,"incongruent",1,1595,0,"Baseline","None","None"
"1470",16,5,906,30,"congruent",1,870,0,"Baseline","None","None"
"1471",16,5,906,31,"incongruent",1,1021,0,"Baseline","None","None"
"1472",16,5,906,32,"incongruent",1,1583,0,"Baseline","None","None"
"1473",16,5,906,33,"incongruent",1,463,0,"Baseline","None","None"
"1474",16,5,906,34,"incongruent",0,807,0,"Baseline","None","None"
"1475",16,5,906,35,"congruent",1,1090,0,"Baseline","None","None"
"1476",16,5,906,36,"congruent",1,782,0,"Baseline","None","None"
"1477",16,5,906,37,"congruent",1,906,0,"Baseline","None","None"
"1478",16,5,906,38,"incongruent",1,616,0,"Baseline","None","None"
"1479",16,5,906,39,"congruent",0,0,0,"Baseline","None","None"
"1480",16,5,906,40,"congruent",1,1595,0,"Baseline","None","None"
"1481",16,5,906,41,"incongruent",1,1189,0,"Baseline","None","None"
"1482",16,5,906,42,"incongruent",0,778,0,"Baseline","None","None"
"1483",16,5,906,43,"congruent",1,929,0,"Baseline","None","None"
"1484",16,5,906,44,"congruent",1,1727,0,"Baseline","None","None"
"1485",16,5,906,45,"incongruent",1,990,0,"Baseline","None","None"
"1486",16,5,906,46,"congruent",1,1160,0,"Baseline","None","None"
"1487",16,5,906,47,"incongruent",1,766,0,"Baseline","None","None"
"1488",16,5,906,48,"incongruent",1,989,0,"Baseline","None","None"
"1489",16,5,906,49,"congruent",1,1257,0,"Baseline","None","None"
"1490",16,5,906,50,"incongruent",0,798,0,"Baseline","None","None"
"1491",16,5,906,51,"incongruent",1,809,0,"Baseline","None","None"
"1492",16,5,906,52,"congruent",1,651,0,"Baseline","None","None"
"1493",16,5,906,53,"congruent",1,995,0,"Baseline","None","None"
"1494",16,5,906,54,"incongruent",1,1066,0,"Baseline","None","None"
"1495",16,5,906,55,"incongruent",1,1120,0,"Baseline","None","None"
"1496",16,5,906,56,"incongruent",1,905,0,"Baseline","None","None"
"1497",16,5,906,57,"incongruent",1,924,0,"Baseline","None","None"
"1498",16,5,906,58,"congruent",1,1354,0,"Baseline","None","None"
"1499",16,5,906,59,"congruent",1,1352,0,"Baseline","None","None"
"1500",16,5,906,60,"incongruent",1,1257,0,"Baseline","None","None"
"1501",16,5,906,61,"incongruent",1,1960,0,"Baseline","None","None"
"1502",16,5,906,62,"incongruent",1,1346,0,"Baseline","None","None"
"1503",16,5,906,63,"incongruent",1,891,0,"Baseline","None","None"
"1504",16,5,906,64,"incongruent",1,1276,0,"Baseline","None","None"
"1505",16,5,906,65,"incongruent",0,984,0,"Baseline","None","None"
"1506",16,5,906,66,"incongruent",1,1100,0,"Baseline","None","None"
"1507",16,5,906,67,"incongruent",1,1153,0,"Baseline","None","None"
"1508",16,5,906,68,"congruent",1,1301,0,"Baseline","None","None"
"1509",16,5,906,69,"congruent",1,859,0,"Baseline","None","None"
"1510",16,5,906,70,"incongruent",0,929,0,"Baseline","None","None"
"1511",16,5,906,71,"congruent",1,592,0,"Baseline","None","None"
"1512",16,5,906,72,"congruent",1,1089,0,"Baseline","None","None"
"1513",16,5,906,73,"incongruent",1,804,0,"Baseline","None","None"
"1514",16,5,906,74,"congruent",1,915,0,"Baseline","None","None"
"1515",16,5,906,75,"incongruent",1,905,0,"Baseline","None","None"
"1516",16,5,906,76,"congruent",1,658,0,"Baseline","None","None"
"1517",16,5,906,77,"incongruent",0,1582,0,"Baseline","None","None"
"1518",16,5,906,78,"incongruent",1,841,0,"Baseline","None","None"
"1519",16,5,906,79,"incongruent",1,1585,0,"Baseline","None","None"
"1520",16,5,906,80,"congruent",1,1059,0,"Baseline","None","None"
"1521",16,5,906,81,"congruent",1,1131,0,"Baseline","None","None"
"1522",16,5,906,82,"incongruent",1,1741,0,"Baseline","None","None"
"1523",16,5,906,83,"congruent",1,992,0,"Baseline","None","None"
"1524",16,5,906,84,"congruent",1,873,0,"Baseline","None","None"
"1525",16,5,906,85,"congruent",1,1008,0,"Baseline","None","None"
"1526",16,5,906,86,"congruent",1,612,0,"Baseline","None","None"
"1527",16,5,906,87,"incongruent",1,953,0,"Baseline","None","None"
"1528",16,5,906,88,"congruent",1,401,0,"Baseline","None","None"
"1529",16,5,906,89,"incongruent",1,743,0,"Baseline","None","None"
"1530",16,5,906,90,"incongruent",0,732,0,"Baseline","None","None"
"1531",16,5,906,91,"congruent",1,1009,0,"Baseline","None","None"
"1532",16,5,906,92,"incongruent",1,673,0,"Baseline","None","None"
"1533",16,5,906,93,"congruent",1,990,0,"Baseline","None","None"
"1534",16,5,906,94,"congruent",1,1883,0,"Baseline","None","None"
"1535",16,5,906,95,"congruent",1,842,0,"Baseline","None","None"
"1536",16,5,906,96,"congruent",1,1283,0,"Baseline","None","None"
"1537",17,5,594,1,"congruent",1,529,0,"Baseline","None","None"
