"","subID","Session","critRT","Trial","Congruency","Reward","ACC","RT","block","IncentiveType","Valence","Feedback"
"1",1,8,1209,1,"incongruent","Reward1",0,1032,3,"liquid","appetitive","juice"
"2",1,8,1209,2,"incongruent","Reward1",1,458,3,"liquid","appetitive","juice"
"3",1,8,1209,3,"congruent","Reward1",1,762,3,"liquid","appetitive","juice"
"4",1,8,1209,4,"congruent","Reward1",1,570,3,"liquid","appetitive","juice"
"5",1,8,1209,5,"incongruent","Reward2",1,480,3,"liquid","appetitive","juice"
"6",1,8,1209,6,"congruent","Reward1",1,465,3,"liquid","appetitive","juice"
"7",1,8,1209,7,"incongruent","Reward2",0,573,3,"liquid","appetitive","juice"
"8",1,8,1209,8,"congruent","Reward4",1,697,3,"liquid","appetitive","juice"
"9",1,8,1209,9,"incongruent","Reward2",1,554,3,"liquid","appetitive","juice"
"10",1,8,1209,10,"incongruent","Reward2",1,490,3,"liquid","appetitive","juice"
"11",1,8,1209,11,"congruent","Reward1",0,742,3,"liquid","appetitive","juice"
"12",1,8,1209,12,"incongruent","Reward2",0,491,3,"liquid","appetitive","juice"
"13",1,8,1209,13,"congruent","Reward4",1,990,3,"liquid","appetitive","juice"
"14",1,8,1209,14,"congruent","Reward2",1,547,3,"liquid","appetitive","juice"
"15",1,8,1209,15,"incongruent","Reward1",1,644,3,"liquid","appetitive","juice"
"16",1,8,1209,16,"incongruent","Reward1",0,439,3,"liquid","appetitive","juice"
"17",1,8,1209,17,"congruent","Reward4",1,585,3,"liquid","appetitive","juice"
"18",1,8,1209,18,"incongruent","Reward2",1,634,3,"liquid","appetitive","juice"
"19",1,8,1209,19,"congruent","Reward4",1,767,3,"liquid","appetitive","juice"
"20",1,8,1209,20,"congruent","Reward1",1,615,3,"liquid","appetitive","juice"
"21",1,8,1209,21,"congruent","Reward2",0,613,3,"liquid","appetitive","juice"
"22",1,8,1209,22,"incongruent","Reward4",1,939,3,"liquid","appetitive","juice"
"23",1,8,1209,23,"congruent","Reward2",1,1177,3,"liquid","appetitive","juice"
"24",1,8,1209,24,"incongruent","Reward2",1,783,3,"liquid","appetitive","juice"
"25",1,8,1209,25,"incongruent","Reward1",1,725,3,"liquid","appetitive","juice"
"26",1,8,1209,26,"incongruent","Reward1",1,444,3,"liquid","appetitive","juice"
"27",1,8,1209,27,"incongruent","Reward4",1,459,3,"liquid","appetitive","juice"
"28",1,8,1209,28,"congruent","Reward4",1,1151,3,"liquid","appetitive","juice"
"29",1,8,1209,29,"congruent","Reward2",0,813,3,"liquid","appetitive","juice"
"30",1,8,1209,30,"incongruent","Reward4",1,534,3,"liquid","appetitive","juice"
"31",1,8,1209,31,"incongruent","Reward2",0,623,3,"liquid","appetitive","juice"
"32",1,8,1209,32,"incongruent","Reward2",1,867,3,"liquid","appetitive","juice"
"33",1,8,1209,33,"congruent","Reward4",1,880,3,"liquid","appetitive","juice"
"34",1,8,1209,34,"incongruent","Reward4",1,716,3,"liquid","appetitive","juice"
"35",1,8,1209,35,"congruent","Reward4",1,541,3,"liquid","appetitive","juice"
"36",1,8,1209,36,"congruent","Reward2",1,922,3,"liquid","appetitive","juice"
"37",1,8,1209,37,"incongruent","Reward4",0,644,3,"liquid","appetitive","juice"
"38",1,8,1209,38,"incongruent","Reward4",1,418,3,"liquid","appetitive","juice"
"39",1,8,1209,39,"incongruent","Reward4",1,918,3,"liquid","appetitive","juice"
"40",1,8,1209,40,"incongruent","Reward4",0,803,3,"liquid","appetitive","juice"
"41",1,8,1209,41,"congruent","Reward2",0,603,3,"liquid","appetitive","juice"
"42",1,8,1209,42,"congruent","Reward1",1,555,3,"liquid","appetitive","juice"
"43",1,8,1209,43,"congruent","Reward4",1,544,3,"liquid","appetitive","juice"
"44",1,8,1209,44,"congruent","Reward2",1,592,3,"liquid","appetitive","juice"
"45",1,8,1209,45,"incongruent","Reward1",1,443,3,"liquid","appetitive","juice"
"46",1,8,1209,46,"incongruent","Reward1",0,511,3,"liquid","appetitive","juice"
"47",1,8,1209,47,"congruent","Reward2",1,668,3,"liquid","appetitive","juice"
"48",1,8,1209,48,"incongruent","Reward1",0,728,3,"liquid","appetitive","juice"
"49",1,8,1209,49,"incongruent","Reward2",1,674,3,"liquid","appetitive","juice"
"50",1,8,1209,50,"congruent","Reward1",1,425,3,"liquid","appetitive","juice"
"51",1,8,1209,51,"congruent","Reward4",1,455,3,"liquid","appetitive","juice"
"52",1,8,1209,52,"incongruent","Reward4",1,530,3,"liquid","appetitive","juice"
"53",1,8,1209,53,"incongruent","Reward2",0,813,3,"liquid","appetitive","juice"
"54",1,8,1209,54,"incongruent","Reward1",1,988,3,"liquid","appetitive","juice"
"55",1,8,1209,55,"congruent","Reward1",1,729,3,"liquid","appetitive","juice"
"56",1,8,1209,56,"congruent","Reward1",1,552,3,"liquid","appetitive","juice"
"57",1,8,1209,57,"congruent","Reward4",1,386,3,"liquid","appetitive","juice"
"58",1,8,1209,58,"incongruent","Reward1",1,438,3,"liquid","appetitive","juice"
"59",1,8,1209,59,"congruent","Reward2",0,243,3,"liquid","appetitive","juice"
"60",1,8,1209,60,"incongruent","Reward2",1,310,3,"liquid","appetitive","juice"
"61",1,8,1209,61,"congruent","Reward4",1,1009,3,"liquid","appetitive","juice"
"62",1,8,1209,62,"congruent","Reward4",1,382,3,"liquid","appetitive","juice"
"63",1,8,1209,63,"congruent","Reward1",1,456,3,"liquid","appetitive","juice"
"64",1,8,1209,64,"congruent","Reward2",0,628,3,"liquid","appetitive","juice"
"65",1,8,1209,65,"congruent","Reward2",1,517,3,"liquid","appetitive","juice"
"66",1,8,1209,66,"congruent","Reward1",0,359,3,"liquid","appetitive","juice"
"67",1,8,1209,67,"incongruent","Reward1",1,332,3,"liquid","appetitive","juice"
"68",1,8,1209,68,"congruent","Reward2",1,553,3,"liquid","appetitive","juice"
"69",1,8,1209,69,"congruent","Reward2",1,331,3,"liquid","appetitive","juice"
"70",1,8,1209,70,"congruent","Reward2",1,322,3,"liquid","appetitive","juice"
"71",1,8,1209,71,"incongruent","Reward4",1,388,3,"liquid","appetitive","juice"
"72",1,8,1209,72,"incongruent","Reward2",0,562,3,"liquid","appetitive","juice"
"73",1,8,1209,73,"incongruent","Reward4",1,437,3,"liquid","appetitive","juice"
"74",1,8,1209,74,"incongruent","Reward2",1,741,3,"liquid","appetitive","juice"
"75",1,8,1209,75,"incongruent","Reward4",0,779,3,"liquid","appetitive","juice"
"76",1,8,1209,76,"congruent","Reward1",1,705,3,"liquid","appetitive","juice"
"77",1,8,1209,77,"incongruent","Reward2",0,339,3,"liquid","appetitive","juice"
"78",1,8,1209,78,"incongruent","Reward4",1,1079,3,"liquid","appetitive","juice"
"79",1,8,1209,79,"incongruent","Reward1",1,664,3,"liquid","appetitive","juice"
"80",1,8,1209,80,"incongruent","Reward4",1,503,3,"liquid","appetitive","juice"
"81",1,8,1209,81,"congruent","Reward1",0,750,3,"liquid","appetitive","juice"
"82",1,8,1209,82,"congruent","Reward4",1,357,3,"liquid","appetitive","juice"
"83",1,8,1209,83,"congruent","Reward4",0,559,3,"liquid","appetitive","juice"
"84",1,8,1209,84,"congruent","Reward2",1,1384,3,"liquid","appetitive","juice"
"85",1,8,1209,85,"incongruent","Reward1",1,617,3,"liquid","appetitive","juice"
"86",1,8,1209,86,"incongruent","Reward4",1,742,3,"liquid","appetitive","juice"
"87",1,8,1209,87,"congruent","Reward1",1,790,3,"liquid","appetitive","juice"
"88",1,8,1209,88,"congruent","Reward4",1,568,3,"liquid","appetitive","juice"
"89",1,8,1209,89,"incongruent","Reward2",1,511,3,"liquid","appetitive","juice"
"90",1,8,1209,90,"incongruent","Reward1",0,305,3,"liquid","appetitive","juice"
"91",1,8,1209,91,"incongruent","Reward4",1,590,3,"liquid","appetitive","juice"
"92",1,8,1209,92,"congruent","Reward2",1,550,3,"liquid","appetitive","juice"
"93",1,8,1209,93,"incongruent","Reward1",1,585,3,"liquid","appetitive","juice"
"94",1,8,1209,94,"congruent","Reward1",0,468,3,"liquid","appetitive","juice"
"95",1,8,1209,95,"congruent","Reward4",1,957,3,"liquid","appetitive","juice"
"96",1,8,1209,96,"congruent","Reward1",0,871,3,"liquid","appetitive","juice"
"97",1,7,1209,1,"incongruent","Reward2",1,538,2,"liquid","neutral","neutral"
"98",1,7,1209,2,"congruent","Reward1",1,645,2,"liquid","neutral","neutral"
"99",1,7,1209,3,"incongruent","Reward1",1,1038,2,"liquid","neutral","neutral"
"100",1,7,1209,4,"congruent","Reward4",1,564,2,"liquid","neutral","neutral"
"101",1,7,1209,5,"congruent","Reward2",1,704,2,"liquid","neutral","neutral"
"102",1,7,1209,6,"incongruent","Reward4",1,617,2,"liquid","neutral","neutral"
"103",1,7,1209,7,"incongruent","Reward1",1,750,2,"liquid","neutral","neutral"
"104",1,7,1209,8,"incongruent","Reward4",1,965,2,"liquid","neutral","neutral"
"105",1,7,1209,9,"incongruent","Reward1",1,473,2,"liquid","neutral","neutral"
"106",1,7,1209,10,"incongruent","Reward2",0,587,2,"liquid","neutral","neutral"
"107",1,7,1209,11,"congruent","Reward4",1,839,2,"liquid","neutral","neutral"
"108",1,7,1209,12,"incongruent","Reward4",1,508,2,"liquid","neutral","neutral"
"109",1,7,1209,13,"incongruent","Reward2",1,675,2,"liquid","neutral","neutral"
"110",1,7,1209,14,"incongruent","Reward4",1,464,2,"liquid","neutral","neutral"
"111",1,7,1209,15,"incongruent","Reward1",1,642,2,"liquid","neutral","neutral"
"112",1,7,1209,16,"congruent","Reward2",0,604,2,"liquid","neutral","neutral"
"113",1,7,1209,17,"congruent","Reward4",1,532,2,"liquid","neutral","neutral"
"114",1,7,1209,18,"congruent","Reward2",0,480,2,"liquid","neutral","neutral"
"115",1,7,1209,19,"congruent","Reward1",0,769,2,"liquid","neutral","neutral"
"116",1,7,1209,20,"congruent","Reward4",1,460,2,"liquid","neutral","neutral"
"117",1,7,1209,21,"congruent","Reward1",1,601,2,"liquid","neutral","neutral"
"118",1,7,1209,22,"congruent","Reward4",0,612,2,"liquid","neutral","neutral"
"119",1,7,1209,23,"congruent","Reward4",1,945,2,"liquid","neutral","neutral"
"120",1,7,1209,24,"congruent","Reward2",0,982,2,"liquid","neutral","neutral"
"121",1,7,1209,25,"congruent","Reward4",1,1393,2,"liquid","neutral","neutral"
"122",1,7,1209,26,"congruent","Reward2",1,1209,2,"liquid","neutral","neutral"
"123",1,7,1209,27,"incongruent","Reward1",1,487,2,"liquid","neutral","neutral"
"124",1,7,1209,28,"congruent","Reward2",1,751,2,"liquid","neutral","neutral"
"125",1,7,1209,29,"congruent","Reward2",1,845,2,"liquid","neutral","neutral"
"126",1,7,1209,30,"incongruent","Reward2",1,950,2,"liquid","neutral","neutral"
"127",1,7,1209,31,"incongruent","Reward4",1,684,2,"liquid","neutral","neutral"
"128",1,7,1209,32,"incongruent","Reward4",1,546,2,"liquid","neutral","neutral"
"129",1,7,1209,33,"incongruent","Reward2",0,1203,2,"liquid","neutral","neutral"
"130",1,7,1209,34,"congruent","Reward1",0,663,2,"liquid","neutral","neutral"
"131",1,7,1209,35,"incongruent","Reward4",1,927,2,"liquid","neutral","neutral"
"132",1,7,1209,36,"congruent","Reward1",0,622,2,"liquid","neutral","neutral"
"133",1,7,1209,37,"congruent","Reward4",1,575,2,"liquid","neutral","neutral"
"134",1,7,1209,38,"incongruent","Reward1",1,688,2,"liquid","neutral","neutral"
"135",1,7,1209,39,"incongruent","Reward2",1,954,2,"liquid","neutral","neutral"
"136",1,7,1209,40,"incongruent","Reward4",1,427,2,"liquid","neutral","neutral"
"137",1,7,1209,41,"congruent","Reward2",1,441,2,"liquid","neutral","neutral"
"138",1,7,1209,42,"congruent","Reward1",0,738,2,"liquid","neutral","neutral"
"139",1,7,1209,43,"incongruent","Reward2",0,503,2,"liquid","neutral","neutral"
"140",1,7,1209,44,"incongruent","Reward4",0,711,2,"liquid","neutral","neutral"
"141",1,7,1209,45,"congruent","Reward2",0,414,2,"liquid","neutral","neutral"
"142",1,7,1209,46,"congruent","Reward1",1,573,2,"liquid","neutral","neutral"
"143",1,7,1209,47,"incongruent","Reward2",0,794,2,"liquid","neutral","neutral"
"144",1,7,1209,48,"congruent","Reward1",1,587,2,"liquid","neutral","neutral"
"145",1,7,1209,49,"incongruent","Reward4",1,468,2,"liquid","neutral","neutral"
"146",1,7,1209,50,"congruent","Reward4",0,807,2,"liquid","neutral","neutral"
"147",1,7,1209,51,"congruent","Reward1",1,538,2,"liquid","neutral","neutral"
"148",1,7,1209,52,"incongruent","Reward1",1,951,2,"liquid","neutral","neutral"
"149",1,7,1209,53,"congruent","Reward2",1,715,2,"liquid","neutral","neutral"
"150",1,7,1209,54,"incongruent","Reward1",1,625,2,"liquid","neutral","neutral"
"151",1,7,1209,55,"incongruent","Reward2",0,425,2,"liquid","neutral","neutral"
"152",1,7,1209,56,"incongruent","Reward2",1,801,2,"liquid","neutral","neutral"
"153",1,7,1209,57,"incongruent","Reward1",1,646,2,"liquid","neutral","neutral"
"154",1,7,1209,58,"incongruent","Reward2",1,846,2,"liquid","neutral","neutral"
"155",1,7,1209,59,"congruent","Reward4",0,894,2,"liquid","neutral","neutral"
"156",1,7,1209,60,"congruent","Reward1",0,743,2,"liquid","neutral","neutral"
"157",1,7,1209,61,"incongruent","Reward2",1,537,2,"liquid","neutral","neutral"
"158",1,7,1209,62,"incongruent","Reward2",1,759,2,"liquid","neutral","neutral"
"159",1,7,1209,63,"incongruent","Reward2",0,703,2,"liquid","neutral","neutral"
"160",1,7,1209,64,"incongruent","Reward4",1,572,2,"liquid","neutral","neutral"
"161",1,7,1209,65,"incongruent","Reward4",1,573,2,"liquid","neutral","neutral"
"162",1,7,1209,66,"incongruent","Reward4",0,707,2,"liquid","neutral","neutral"
"163",1,7,1209,67,"incongruent","Reward1",1,586,2,"liquid","neutral","neutral"
"164",1,7,1209,68,"incongruent","Reward2",1,763,2,"liquid","neutral","neutral"
"165",1,7,1209,69,"congruent","Reward1",1,761,2,"liquid","neutral","neutral"
"166",1,7,1209,70,"congruent","Reward2",1,457,2,"liquid","neutral","neutral"
"167",1,7,1209,71,"congruent","Reward4",1,433,2,"liquid","neutral","neutral"
"168",1,7,1209,72,"incongruent","Reward4",1,573,2,"liquid","neutral","neutral"
"169",1,7,1209,73,"incongruent","Reward4",1,463,2,"liquid","neutral","neutral"
"170",1,7,1209,74,"congruent","Reward2",0,621,2,"liquid","neutral","neutral"
"171",1,7,1209,75,"congruent","Reward4",0,339,2,"liquid","neutral","neutral"
"172",1,7,1209,76,"incongruent","Reward2",0,992,2,"liquid","neutral","neutral"
"173",1,7,1209,77,"congruent","Reward4",1,811,2,"liquid","neutral","neutral"
"174",1,7,1209,78,"congruent","Reward4",1,872,2,"liquid","neutral","neutral"
"175",1,7,1209,79,"incongruent","Reward4",1,544,2,"liquid","neutral","neutral"
"176",1,7,1209,80,"congruent","Reward1",0,566,2,"liquid","neutral","neutral"
"177",1,7,1209,81,"congruent","Reward4",1,628,2,"liquid","neutral","neutral"
"178",1,7,1209,82,"congruent","Reward1",0,679,2,"liquid","neutral","neutral"
"179",1,7,1209,83,"congruent","Reward1",1,1098,2,"liquid","neutral","neutral"
"180",1,7,1209,84,"congruent","Reward2",1,1109,2,"liquid","neutral","neutral"
"181",1,7,1209,85,"incongruent","Reward1",1,428,2,"liquid","neutral","neutral"
"182",1,7,1209,86,"incongruent","Reward1",0,434,2,"liquid","neutral","neutral"
"183",1,7,1209,87,"incongruent","Reward1",1,554,2,"liquid","neutral","neutral"
"184",1,7,1209,88,"congruent","Reward2",0,692,2,"liquid","neutral","neutral"
"185",1,7,1209,89,"congruent","Reward1",0,486,2,"liquid","neutral","neutral"
"186",1,7,1209,90,"incongruent","Reward1",0,597,2,"liquid","neutral","neutral"
"187",1,7,1209,91,"congruent","Reward2",0,341,2,"liquid","neutral","neutral"
"188",1,7,1209,92,"congruent","Reward1",1,697,2,"liquid","neutral","neutral"
"189",1,7,1209,93,"incongruent","Reward1",1,1013,2,"liquid","neutral","neutral"
"190",1,7,1209,94,"congruent","Reward4",1,719,2,"liquid","neutral","neutral"
"191",1,7,1209,95,"congruent","Reward2",0,642,2,"liquid","neutral","neutral"
"192",1,7,1209,96,"incongruent","Reward1",0,716,2,"liquid","neutral","neutral"
"193",1,6,1209,1,"congruent","Reward2",1,1035,1,"liquid","aversive","saltwater"
"194",1,6,1209,2,"incongruent","Reward2",1,707,1,"liquid","aversive","saltwater"
"195",1,6,1209,3,"congruent","Reward2",1,734,1,"liquid","aversive","saltwater"
"196",1,6,1209,4,"incongruent","Reward2",1,1111,1,"liquid","aversive","saltwater"
"197",1,6,1209,5,"incongruent","Reward4",0,1049,1,"liquid","aversive","saltwater"
"198",1,6,1209,6,"congruent","Reward2",1,1751,1,"liquid","aversive","saltwater"
"199",1,6,1209,7,"congruent","Reward4",0,1296,1,"liquid","aversive","saltwater"
"200",1,6,1209,8,"incongruent","Reward1",1,729,1,"liquid","aversive","saltwater"
"201",1,6,1209,9,"incongruent","Reward2",0,1222,1,"liquid","aversive","saltwater"
"202",1,6,1209,10,"congruent","Reward1",1,1905,1,"liquid","aversive","saltwater"
"203",1,6,1209,11,"congruent","Reward1",1,1370,1,"liquid","aversive","saltwater"
"204",1,6,1209,12,"incongruent","Reward2",1,1017,1,"liquid","aversive","saltwater"
"205",1,6,1209,13,"congruent","Reward1",1,890,1,"liquid","aversive","saltwater"
"206",1,6,1209,14,"congruent","Reward4",1,878,1,"liquid","aversive","saltwater"
"207",1,6,1209,15,"congruent","Reward2",1,962,1,"liquid","aversive","saltwater"
"208",1,6,1209,16,"incongruent","Reward4",1,946,1,"liquid","aversive","saltwater"
"209",1,6,1209,17,"incongruent","Reward2",0,648,1,"liquid","aversive","saltwater"
"210",1,6,1209,18,"incongruent","Reward4",1,815,1,"liquid","aversive","saltwater"
"211",1,6,1209,19,"congruent","Reward2",1,975,1,"liquid","aversive","saltwater"
"212",1,6,1209,20,"congruent","Reward4",0,935,1,"liquid","aversive","saltwater"
"213",1,6,1209,21,"congruent","Reward1",1,653,1,"liquid","aversive","saltwater"
"214",1,6,1209,22,"congruent","Reward1",1,861,1,"liquid","aversive","saltwater"
"215",1,6,1209,23,"congruent","Reward2",1,1024,1,"liquid","aversive","saltwater"
"216",1,6,1209,24,"incongruent","Reward4",1,849,1,"liquid","aversive","saltwater"
"217",1,6,1209,25,"congruent","Reward4",1,1063,1,"liquid","aversive","saltwater"
"218",1,6,1209,26,"congruent","Reward2",1,1124,1,"liquid","aversive","saltwater"
"219",1,6,1209,27,"congruent","Reward1",1,1021,1,"liquid","aversive","saltwater"
"220",1,6,1209,28,"incongruent","Reward2",1,575,1,"liquid","aversive","saltwater"
"221",1,6,1209,29,"incongruent","Reward2",1,663,1,"liquid","aversive","saltwater"
"222",1,6,1209,30,"incongruent","Reward1",1,758,1,"liquid","aversive","saltwater"
"223",1,6,1209,31,"congruent","Reward2",1,1151,1,"liquid","aversive","saltwater"
"224",1,6,1209,32,"incongruent","Reward1",1,953,1,"liquid","aversive","saltwater"
"225",1,6,1209,33,"congruent","Reward4",1,526,1,"liquid","aversive","saltwater"
"226",1,6,1209,34,"congruent","Reward2",1,1134,1,"liquid","aversive","saltwater"
"227",1,6,1209,35,"incongruent","Reward4",1,608,1,"liquid","aversive","saltwater"
"228",1,6,1209,36,"congruent","Reward4",1,835,1,"liquid","aversive","saltwater"
"229",1,6,1209,37,"incongruent","Reward4",1,1006,1,"liquid","aversive","saltwater"
"230",1,6,1209,38,"incongruent","Reward2",0,1233,1,"liquid","aversive","saltwater"
"231",1,6,1209,39,"incongruent","Reward1",1,574,1,"liquid","aversive","saltwater"
"232",1,6,1209,40,"incongruent","Reward4",1,858,1,"liquid","aversive","saltwater"
"233",1,6,1209,41,"congruent","Reward4",1,1694,1,"liquid","aversive","saltwater"
"234",1,6,1209,42,"congruent","Reward1",1,374,1,"liquid","aversive","saltwater"
"235",1,6,1209,43,"congruent","Reward1",1,801,1,"liquid","aversive","saltwater"
"236",1,6,1209,44,"incongruent","Reward1",1,1327,1,"liquid","aversive","saltwater"
"237",1,6,1209,45,"incongruent","Reward2",1,1245,1,"liquid","aversive","saltwater"
"238",1,6,1209,46,"congruent","Reward4",0,683,1,"liquid","aversive","saltwater"
"239",1,6,1209,47,"incongruent","Reward4",0,1195,1,"liquid","aversive","saltwater"
"240",1,6,1209,48,"incongruent","Reward1",1,476,1,"liquid","aversive","saltwater"
"241",1,6,1209,49,"congruent","Reward4",1,494,1,"liquid","aversive","saltwater"
"242",1,6,1209,50,"incongruent","Reward4",1,742,1,"liquid","aversive","saltwater"
"243",1,6,1209,51,"incongruent","Reward2",1,1239,1,"liquid","aversive","saltwater"
"244",1,6,1209,52,"incongruent","Reward2",1,554,1,"liquid","aversive","saltwater"
"245",1,6,1209,53,"incongruent","Reward1",0,798,1,"liquid","aversive","saltwater"
"246",1,6,1209,54,"incongruent","Reward4",1,482,1,"liquid","aversive","saltwater"
"247",1,6,1209,55,"congruent","Reward2",0,1417,1,"liquid","aversive","saltwater"
"248",1,6,1209,56,"congruent","Reward4",1,1142,1,"liquid","aversive","saltwater"
"249",1,6,1209,57,"congruent","Reward1",0,814,1,"liquid","aversive","saltwater"
"250",1,6,1209,58,"incongruent","Reward4",1,882,1,"liquid","aversive","saltwater"
"251",1,6,1209,59,"congruent","Reward2",1,1217,1,"liquid","aversive","saltwater"
"252",1,6,1209,60,"incongruent","Reward2",0,637,1,"liquid","aversive","saltwater"
"253",1,6,1209,61,"incongruent","Reward2",1,636,1,"liquid","aversive","saltwater"
"254",1,6,1209,62,"congruent","Reward2",1,1079,1,"liquid","aversive","saltwater"
"255",1,6,1209,63,"incongruent","Reward1",1,1224,1,"liquid","aversive","saltwater"
"256",1,6,1209,64,"incongruent","Reward1",1,1081,1,"liquid","aversive","saltwater"
"257",1,6,1209,65,"incongruent","Reward4",0,893,1,"liquid","aversive","saltwater"
"258",1,6,1209,66,"incongruent","Reward1",1,876,1,"liquid","aversive","saltwater"
"259",1,6,1209,67,"congruent","Reward1",0,1325,1,"liquid","aversive","saltwater"
"260",1,6,1209,68,"congruent","Reward2",1,1125,1,"liquid","aversive","saltwater"
"261",1,6,1209,69,"congruent","Reward1",1,1368,1,"liquid","aversive","saltwater"
"262",1,6,1209,70,"congruent","Reward1",0,1130,1,"liquid","aversive","saltwater"
"263",1,6,1209,71,"congruent","Reward2",1,578,1,"liquid","aversive","saltwater"
"264",1,6,1209,72,"congruent","Reward4",1,1013,1,"liquid","aversive","saltwater"
"265",1,6,1209,73,"congruent","Reward4",0,1217,1,"liquid","aversive","saltwater"
"266",1,6,1209,74,"congruent","Reward4",1,464,1,"liquid","aversive","saltwater"
"267",1,6,1209,75,"congruent","Reward1",1,1162,1,"liquid","aversive","saltwater"
"268",1,6,1209,76,"incongruent","Reward4",1,839,1,"liquid","aversive","saltwater"
"269",1,6,1209,77,"congruent","Reward2",1,676,1,"liquid","aversive","saltwater"
"270",1,6,1209,78,"congruent","Reward4",1,802,1,"liquid","aversive","saltwater"
"271",1,6,1209,79,"incongruent","Reward1",1,589,1,"liquid","aversive","saltwater"
"272",1,6,1209,80,"incongruent","Reward4",1,704,1,"liquid","aversive","saltwater"
"273",1,6,1209,81,"congruent","Reward2",0,896,1,"liquid","aversive","saltwater"
"274",1,6,1209,82,"congruent","Reward1",1,914,1,"liquid","aversive","saltwater"
"275",1,6,1209,83,"incongruent","Reward1",0,947,1,"liquid","aversive","saltwater"
"276",1,6,1209,84,"incongruent","Reward4",1,1093,1,"liquid","aversive","saltwater"
"277",1,6,1209,85,"incongruent","Reward1",1,1370,1,"liquid","aversive","saltwater"
"278",1,6,1209,86,"incongruent","Reward1",1,1179,1,"liquid","aversive","saltwater"
"279",1,6,1209,87,"congruent","Reward4",0,1009,1,"liquid","aversive","saltwater"
"280",1,6,1209,88,"incongruent","Reward1",1,784,1,"liquid","aversive","saltwater"
"281",1,6,1209,89,"congruent","Reward1",0,1989,1,"liquid","aversive","saltwater"
"282",1,6,1209,90,"incongruent","Reward2",0,789,1,"liquid","aversive","saltwater"
"283",1,6,1209,91,"congruent","Reward1",1,1068,1,"liquid","aversive","saltwater"
"284",1,6,1209,92,"incongruent","Reward2",1,1188,1,"liquid","aversive","saltwater"
"285",1,6,1209,93,"incongruent","Reward1",1,1001,1,"liquid","aversive","saltwater"
"286",1,6,1209,94,"incongruent","Reward4",1,369,1,"liquid","aversive","saltwater"
"287",1,6,1209,95,"incongruent","Reward2",0,1072,1,"liquid","aversive","saltwater"
"288",1,6,1209,96,"congruent","Reward4",1,657,1,"liquid","aversive","saltwater"
"289",1,10,1209,1,"congruent","Reward2",1,769,5,"face","appetitive","happy"
"290",1,10,1209,2,"incongruent","Reward2",0,893,5,"face","appetitive","happy"
"291",1,10,1209,3,"congruent","Reward2",1,898,5,"face","appetitive","happy"
"292",1,10,1209,4,"incongruent","Reward2",1,532,5,"face","appetitive","happy"
"293",1,10,1209,5,"incongruent","Reward4",0,951,5,"face","appetitive","happy"
"294",1,10,1209,6,"congruent","Reward2",1,884,5,"face","appetitive","happy"
"295",1,10,1209,7,"congruent","Reward4",1,664,5,"face","appetitive","happy"
"296",1,10,1209,8,"incongruent","Reward1",1,727,5,"face","appetitive","happy"
"297",1,10,1209,9,"incongruent","Reward2",1,672,5,"face","appetitive","happy"
"298",1,10,1209,10,"congruent","Reward1",1,595,5,"face","appetitive","happy"
"299",1,10,1209,11,"congruent","Reward1",1,738,5,"face","appetitive","happy"
"300",1,10,1209,12,"incongruent","Reward2",1,604,5,"face","appetitive","happy"
"301",1,10,1209,13,"congruent","Reward1",1,489,5,"face","appetitive","happy"
"302",1,10,1209,14,"congruent","Reward4",1,575,5,"face","appetitive","happy"
"303",1,10,1209,15,"congruent","Reward2",0,465,5,"face","appetitive","happy"
"304",1,10,1209,16,"incongruent","Reward4",1,470,5,"face","appetitive","happy"
"305",1,10,1209,17,"incongruent","Reward2",0,556,5,"face","appetitive","happy"
"306",1,10,1209,18,"incongruent","Reward4",1,429,5,"face","appetitive","happy"
"307",1,10,1209,19,"congruent","Reward2",1,663,5,"face","appetitive","happy"
"308",1,10,1209,20,"congruent","Reward4",1,672,5,"face","appetitive","happy"
"309",1,10,1209,21,"congruent","Reward1",1,532,5,"face","appetitive","happy"
"310",1,10,1209,22,"congruent","Reward1",1,831,5,"face","appetitive","happy"
"311",1,10,1209,23,"congruent","Reward2",0,449,5,"face","appetitive","happy"
"312",1,10,1209,24,"incongruent","Reward4",0,627,5,"face","appetitive","happy"
"313",1,10,1209,25,"congruent","Reward4",0,1292,5,"face","appetitive","happy"
"314",1,10,1209,26,"congruent","Reward2",1,770,5,"face","appetitive","happy"
"315",1,10,1209,27,"congruent","Reward1",0,665,5,"face","appetitive","happy"
"316",1,10,1209,28,"incongruent","Reward2",0,673,5,"face","appetitive","happy"
"317",1,10,1209,29,"incongruent","Reward2",1,518,5,"face","appetitive","happy"
"318",1,10,1209,30,"incongruent","Reward1",1,441,5,"face","appetitive","happy"
"319",1,10,1209,31,"congruent","Reward2",1,558,5,"face","appetitive","happy"
"320",1,10,1209,32,"incongruent","Reward1",1,644,5,"face","appetitive","happy"
"321",1,10,1209,33,"congruent","Reward4",0,596,5,"face","appetitive","happy"
"322",1,10,1209,34,"congruent","Reward2",1,787,5,"face","appetitive","happy"
"323",1,10,1209,35,"incongruent","Reward4",0,822,5,"face","appetitive","happy"
"324",1,10,1209,36,"congruent","Reward4",1,747,5,"face","appetitive","happy"
"325",1,10,1209,37,"incongruent","Reward4",1,621,5,"face","appetitive","happy"
"326",1,10,1209,38,"incongruent","Reward2",0,1165,5,"face","appetitive","happy"
"327",1,10,1209,39,"incongruent","Reward1",1,575,5,"face","appetitive","happy"
"328",1,10,1209,40,"incongruent","Reward4",1,527,5,"face","appetitive","happy"
"329",1,10,1209,41,"congruent","Reward4",1,734,5,"face","appetitive","happy"
"330",1,10,1209,42,"congruent","Reward1",0,900,5,"face","appetitive","happy"
"331",1,10,1209,43,"congruent","Reward1",1,581,5,"face","appetitive","happy"
"332",1,10,1209,44,"incongruent","Reward1",1,602,5,"face","appetitive","happy"
"333",1,10,1209,45,"incongruent","Reward2",0,521,5,"face","appetitive","happy"
"334",1,10,1209,46,"congruent","Reward4",1,874,5,"face","appetitive","happy"
"335",1,10,1209,47,"incongruent","Reward4",1,932,5,"face","appetitive","happy"
"336",1,10,1209,48,"incongruent","Reward1",1,576,5,"face","appetitive","happy"
"337",1,10,1209,49,"congruent","Reward4",1,398,5,"face","appetitive","happy"
"338",1,10,1209,50,"incongruent","Reward4",1,927,5,"face","appetitive","happy"
"339",1,10,1209,51,"incongruent","Reward2",1,538,5,"face","appetitive","happy"
"340",1,10,1209,52,"incongruent","Reward2",1,1073,5,"face","appetitive","happy"
"341",1,10,1209,53,"incongruent","Reward1",0,532,5,"face","appetitive","happy"
"342",1,10,1209,54,"incongruent","Reward4",1,845,5,"face","appetitive","happy"
"343",1,10,1209,55,"congruent","Reward2",1,740,5,"face","appetitive","happy"
"344",1,10,1209,56,"congruent","Reward4",1,614,5,"face","appetitive","happy"
"345",1,10,1209,57,"congruent","Reward1",0,897,5,"face","appetitive","happy"
"346",1,10,1209,58,"incongruent","Reward4",1,516,5,"face","appetitive","happy"
"347",1,10,1209,59,"congruent","Reward2",1,815,5,"face","appetitive","happy"
"348",1,10,1209,60,"incongruent","Reward2",1,694,5,"face","appetitive","happy"
"349",1,10,1209,61,"incongruent","Reward2",1,528,5,"face","appetitive","happy"
"350",1,10,1209,62,"congruent","Reward2",1,584,5,"face","appetitive","happy"
"351",1,10,1209,63,"incongruent","Reward1",1,642,5,"face","appetitive","happy"
"352",1,10,1209,64,"incongruent","Reward1",1,682,5,"face","appetitive","happy"
"353",1,10,1209,65,"incongruent","Reward4",1,650,5,"face","appetitive","happy"
"354",1,10,1209,66,"incongruent","Reward1",1,517,5,"face","appetitive","happy"
"355",1,10,1209,67,"congruent","Reward1",1,774,5,"face","appetitive","happy"
"356",1,10,1209,68,"congruent","Reward2",0,529,5,"face","appetitive","happy"
"357",1,10,1209,69,"congruent","Reward1",1,490,5,"face","appetitive","happy"
"358",1,10,1209,70,"congruent","Reward1",1,566,5,"face","appetitive","happy"
"359",1,10,1209,71,"congruent","Reward2",1,823,5,"face","appetitive","happy"
"360",1,10,1209,72,"congruent","Reward4",1,352,5,"face","appetitive","happy"
"361",1,10,1209,73,"congruent","Reward4",1,575,5,"face","appetitive","happy"
"362",1,10,1209,74,"congruent","Reward4",1,1272,5,"face","appetitive","happy"
"363",1,10,1209,75,"congruent","Reward1",0,701,5,"face","appetitive","happy"
"364",1,10,1209,76,"incongruent","Reward4",1,585,5,"face","appetitive","happy"
"365",1,10,1209,77,"congruent","Reward2",1,741,5,"face","appetitive","happy"
"366",1,10,1209,78,"congruent","Reward4",0,577,5,"face","appetitive","happy"
"367",1,10,1209,79,"incongruent","Reward1",1,393,5,"face","appetitive","happy"
"368",1,10,1209,80,"incongruent","Reward4",1,510,5,"face","appetitive","happy"
"369",1,10,1209,81,"congruent","Reward2",1,688,5,"face","appetitive","happy"
"370",1,10,1209,82,"congruent","Reward1",1,746,5,"face","appetitive","happy"
"371",1,10,1209,83,"incongruent","Reward1",0,540,5,"face","appetitive","happy"
"372",1,10,1209,84,"incongruent","Reward4",0,864,5,"face","appetitive","happy"
"373",1,10,1209,85,"incongruent","Reward1",1,488,5,"face","appetitive","happy"
"374",1,10,1209,86,"incongruent","Reward1",1,390,5,"face","appetitive","happy"
"375",1,10,1209,87,"congruent","Reward4",1,569,5,"face","appetitive","happy"
"376",1,10,1209,88,"incongruent","Reward1",1,603,5,"face","appetitive","happy"
"377",1,10,1209,89,"congruent","Reward1",1,754,5,"face","appetitive","happy"
"378",1,10,1209,90,"incongruent","Reward2",1,755,5,"face","appetitive","happy"
"379",1,10,1209,91,"congruent","Reward1",0,773,5,"face","appetitive","happy"
"380",1,10,1209,92,"incongruent","Reward2",1,675,5,"face","appetitive","happy"
"381",1,10,1209,93,"incongruent","Reward1",0,549,5,"face","appetitive","happy"
"382",1,10,1209,94,"incongruent","Reward4",1,482,5,"face","appetitive","happy"
"383",1,10,1209,95,"incongruent","Reward2",0,556,5,"face","appetitive","happy"
"384",1,10,1209,96,"congruent","Reward4",0,457,5,"face","appetitive","happy"
"385",1,9,1209,1,"congruent","Reward2",1,411,4,"face","neutral","neutral"
"386",1,9,1209,2,"incongruent","Reward2",1,704,4,"face","neutral","neutral"
"387",1,9,1209,3,"congruent","Reward2",0,905,4,"face","neutral","neutral"
"388",1,9,1209,4,"incongruent","Reward2",1,419,4,"face","neutral","neutral"
"389",1,9,1209,5,"incongruent","Reward4",1,1247,4,"face","neutral","neutral"
"390",1,9,1209,6,"congruent","Reward2",1,966,4,"face","neutral","neutral"
"391",1,9,1209,7,"congruent","Reward4",0,1060,4,"face","neutral","neutral"
"392",1,9,1209,8,"incongruent","Reward1",1,660,4,"face","neutral","neutral"
"393",1,9,1209,9,"incongruent","Reward2",1,538,4,"face","neutral","neutral"
"394",1,9,1209,10,"congruent","Reward1",0,457,4,"face","neutral","neutral"
"395",1,9,1209,11,"congruent","Reward1",1,540,4,"face","neutral","neutral"
"396",1,9,1209,12,"incongruent","Reward2",1,681,4,"face","neutral","neutral"
"397",1,9,1209,13,"congruent","Reward1",1,630,4,"face","neutral","neutral"
"398",1,9,1209,14,"congruent","Reward4",0,510,4,"face","neutral","neutral"
"399",1,9,1209,15,"congruent","Reward2",0,378,4,"face","neutral","neutral"
"400",1,9,1209,16,"incongruent","Reward4",1,852,4,"face","neutral","neutral"
"401",1,9,1209,17,"incongruent","Reward2",0,816,4,"face","neutral","neutral"
"402",1,9,1209,18,"incongruent","Reward4",0,874,4,"face","neutral","neutral"
"403",1,9,1209,19,"congruent","Reward2",1,906,4,"face","neutral","neutral"
"404",1,9,1209,20,"congruent","Reward4",0,504,4,"face","neutral","neutral"
"405",1,9,1209,21,"congruent","Reward1",1,496,4,"face","neutral","neutral"
"406",1,9,1209,22,"congruent","Reward1",1,649,4,"face","neutral","neutral"
"407",1,9,1209,23,"congruent","Reward2",1,517,4,"face","neutral","neutral"
"408",1,9,1209,24,"incongruent","Reward4",0,484,4,"face","neutral","neutral"
"409",1,9,1209,25,"congruent","Reward4",1,761,4,"face","neutral","neutral"
"410",1,9,1209,26,"congruent","Reward2",1,660,4,"face","neutral","neutral"
"411",1,9,1209,27,"congruent","Reward1",1,652,4,"face","neutral","neutral"
"412",1,9,1209,28,"incongruent","Reward2",0,468,4,"face","neutral","neutral"
"413",1,9,1209,29,"incongruent","Reward2",1,459,4,"face","neutral","neutral"
"414",1,9,1209,30,"incongruent","Reward1",1,591,4,"face","neutral","neutral"
"415",1,9,1209,31,"congruent","Reward2",0,539,4,"face","neutral","neutral"
"416",1,9,1209,32,"incongruent","Reward1",1,586,4,"face","neutral","neutral"
"417",1,9,1209,33,"congruent","Reward4",1,643,4,"face","neutral","neutral"
"418",1,9,1209,34,"congruent","Reward2",1,853,4,"face","neutral","neutral"
"419",1,9,1209,35,"incongruent","Reward4",1,558,4,"face","neutral","neutral"
"420",1,9,1209,36,"congruent","Reward4",0,566,4,"face","neutral","neutral"
"421",1,9,1209,37,"incongruent","Reward4",1,460,4,"face","neutral","neutral"
"422",1,9,1209,38,"incongruent","Reward2",1,702,4,"face","neutral","neutral"
"423",1,9,1209,39,"incongruent","Reward1",1,667,4,"face","neutral","neutral"
"424",1,9,1209,40,"incongruent","Reward4",0,1105,4,"face","neutral","neutral"
"425",1,9,1209,41,"congruent","Reward4",0,849,4,"face","neutral","neutral"
"426",1,9,1209,42,"congruent","Reward1",1,595,4,"face","neutral","neutral"
"427",1,9,1209,43,"congruent","Reward1",1,443,4,"face","neutral","neutral"
"428",1,9,1209,44,"incongruent","Reward1",1,397,4,"face","neutral","neutral"
"429",1,9,1209,45,"incongruent","Reward2",0,545,4,"face","neutral","neutral"
"430",1,9,1209,46,"congruent","Reward4",0,1311,4,"face","neutral","neutral"
"431",1,9,1209,47,"incongruent","Reward4",0,398,4,"face","neutral","neutral"
"432",1,9,1209,48,"incongruent","Reward1",1,647,4,"face","neutral","neutral"
"433",1,9,1209,49,"congruent","Reward4",1,653,4,"face","neutral","neutral"
"434",1,9,1209,50,"incongruent","Reward4",1,1010,4,"face","neutral","neutral"
"435",1,9,1209,51,"incongruent","Reward2",0,489,4,"face","neutral","neutral"
"436",1,9,1209,52,"incongruent","Reward2",1,333,4,"face","neutral","neutral"
"437",1,9,1209,53,"incongruent","Reward1",0,960,4,"face","neutral","neutral"
"438",1,9,1209,54,"incongruent","Reward4",1,395,4,"face","neutral","neutral"
"439",1,9,1209,55,"congruent","Reward2",1,596,4,"face","neutral","neutral"
"440",1,9,1209,56,"congruent","Reward4",1,450,4,"face","neutral","neutral"
"441",1,9,1209,57,"congruent","Reward1",1,428,4,"face","neutral","neutral"
"442",1,9,1209,58,"incongruent","Reward4",1,366,4,"face","neutral","neutral"
"443",1,9,1209,59,"congruent","Reward2",0,512,4,"face","neutral","neutral"
"444",1,9,1209,60,"incongruent","Reward2",1,540,4,"face","neutral","neutral"
"445",1,9,1209,61,"incongruent","Reward2",1,464,4,"face","neutral","neutral"
"446",1,9,1209,62,"congruent","Reward2",1,442,4,"face","neutral","neutral"
"447",1,9,1209,63,"incongruent","Reward1",0,629,4,"face","neutral","neutral"
"448",1,9,1209,64,"incongruent","Reward1",0,510,4,"face","neutral","neutral"
"449",1,9,1209,65,"incongruent","Reward4",1,496,4,"face","neutral","neutral"
"450",1,9,1209,66,"incongruent","Reward1",1,512,4,"face","neutral","neutral"
"451",1,9,1209,67,"congruent","Reward1",0,1137,4,"face","neutral","neutral"
"452",1,9,1209,68,"congruent","Reward2",0,383,4,"face","neutral","neutral"
"453",1,9,1209,69,"congruent","Reward1",1,633,4,"face","neutral","neutral"
"454",1,9,1209,70,"congruent","Reward1",1,711,4,"face","neutral","neutral"
"455",1,9,1209,71,"congruent","Reward2",1,693,4,"face","neutral","neutral"
"456",1,9,1209,72,"congruent","Reward4",0,510,4,"face","neutral","neutral"
"457",1,9,1209,73,"congruent","Reward4",1,597,4,"face","neutral","neutral"
"458",1,9,1209,74,"congruent","Reward4",0,609,4,"face","neutral","neutral"
"459",1,9,1209,75,"congruent","Reward1",1,765,4,"face","neutral","neutral"
"460",1,9,1209,76,"incongruent","Reward4",1,488,4,"face","neutral","neutral"
"461",1,9,1209,77,"congruent","Reward2",1,558,4,"face","neutral","neutral"
"462",1,9,1209,78,"congruent","Reward4",1,525,4,"face","neutral","neutral"
"463",1,9,1209,79,"incongruent","Reward1",1,787,4,"face","neutral","neutral"
"464",1,9,1209,80,"incongruent","Reward4",1,584,4,"face","neutral","neutral"
"465",1,9,1209,81,"congruent","Reward2",1,657,4,"face","neutral","neutral"
"466",1,9,1209,82,"congruent","Reward1",0,499,4,"face","neutral","neutral"
"467",1,9,1209,83,"incongruent","Reward1",0,639,4,"face","neutral","neutral"
"468",1,9,1209,84,"incongruent","Reward4",1,989,4,"face","neutral","neutral"
"469",1,9,1209,85,"incongruent","Reward1",0,0,4,"face","neutral","neutral"
"470",1,9,1209,86,"incongruent","Reward1",1,628,4,"face","neutral","neutral"
"471",1,9,1209,87,"congruent","Reward4",0,482,4,"face","neutral","neutral"
"472",1,9,1209,88,"incongruent","Reward1",0,606,4,"face","neutral","neutral"
"473",1,9,1209,89,"congruent","Reward1",1,512,4,"face","neutral","neutral"
"474",1,9,1209,90,"incongruent","Reward2",1,663,4,"face","neutral","neutral"
"475",1,9,1209,91,"congruent","Reward1",0,1197,4,"face","neutral","neutral"
"476",1,9,1209,92,"incongruent","Reward2",0,686,4,"face","neutral","neutral"
"477",1,9,1209,93,"incongruent","Reward1",0,609,4,"face","neutral","neutral"
"478",1,9,1209,94,"incongruent","Reward4",1,546,4,"face","neutral","neutral"
"479",1,9,1209,95,"incongruent","Reward2",0,574,4,"face","neutral","neutral"
"480",1,9,1209,96,"congruent","Reward4",1,502,4,"face","neutral","neutral"
"481",1,11,1209,1,"congruent","Reward2",1,905,6,"face","aversive","sad"
"482",1,11,1209,2,"incongruent","Reward2",1,469,6,"face","aversive","sad"
"483",1,11,1209,3,"congruent","Reward2",1,497,6,"face","aversive","sad"
"484",1,11,1209,4,"incongruent","Reward2",1,440,6,"face","aversive","sad"
"485",1,11,1209,5,"incongruent","Reward4",1,545,6,"face","aversive","sad"
"486",1,11,1209,6,"congruent","Reward2",1,595,6,"face","aversive","sad"
"487",1,11,1209,7,"congruent","Reward4",1,499,6,"face","aversive","sad"
"488",1,11,1209,8,"incongruent","Reward1",0,511,6,"face","aversive","sad"
"489",1,11,1209,9,"incongruent","Reward2",0,480,6,"face","aversive","sad"
"490",1,11,1209,10,"congruent","Reward1",1,502,6,"face","aversive","sad"
"491",1,11,1209,11,"congruent","Reward1",1,787,6,"face","aversive","sad"
"492",1,11,1209,12,"incongruent","Reward2",1,451,6,"face","aversive","sad"
"493",1,11,1209,13,"congruent","Reward1",1,522,6,"face","aversive","sad"
"494",1,11,1209,14,"congruent","Reward4",0,594,6,"face","aversive","sad"
"495",1,11,1209,15,"congruent","Reward2",1,966,6,"face","aversive","sad"
"496",1,11,1209,16,"incongruent","Reward4",0,836,6,"face","aversive","sad"
"497",1,11,1209,17,"incongruent","Reward2",0,820,6,"face","aversive","sad"
"498",1,11,1209,18,"incongruent","Reward4",0,559,6,"face","aversive","sad"
"499",1,11,1209,19,"congruent","Reward2",1,520,6,"face","aversive","sad"
"500",1,11,1209,20,"congruent","Reward4",1,709,6,"face","aversive","sad"
"501",1,11,1209,21,"congruent","Reward1",1,664,6,"face","aversive","sad"
"502",1,11,1209,22,"congruent","Reward1",1,645,6,"face","aversive","sad"
"503",1,11,1209,23,"congruent","Reward2",0,799,6,"face","aversive","sad"
"504",1,11,1209,24,"incongruent","Reward4",0,537,6,"face","aversive","sad"
"505",1,11,1209,25,"congruent","Reward4",1,556,6,"face","aversive","sad"
"506",1,11,1209,26,"congruent","Reward2",1,556,6,"face","aversive","sad"
"507",1,11,1209,27,"congruent","Reward1",1,512,6,"face","aversive","sad"
"508",1,11,1209,28,"incongruent","Reward2",0,399,6,"face","aversive","sad"
"509",1,11,1209,29,"incongruent","Reward2",0,508,6,"face","aversive","sad"
"510",1,11,1209,30,"incongruent","Reward1",0,647,6,"face","aversive","sad"
"511",1,11,1209,31,"congruent","Reward2",1,1165,6,"face","aversive","sad"
"512",1,11,1209,32,"incongruent","Reward1",1,602,6,"face","aversive","sad"
"513",1,11,1209,33,"congruent","Reward4",1,489,6,"face","aversive","sad"
"514",1,11,1209,34,"congruent","Reward2",0,572,6,"face","aversive","sad"
"515",1,11,1209,35,"incongruent","Reward4",1,494,6,"face","aversive","sad"
"516",1,11,1209,36,"congruent","Reward4",1,547,6,"face","aversive","sad"
"517",1,11,1209,37,"incongruent","Reward4",1,612,6,"face","aversive","sad"
"518",1,11,1209,38,"incongruent","Reward2",1,514,6,"face","aversive","sad"
"519",1,11,1209,39,"incongruent","Reward1",1,480,6,"face","aversive","sad"
"520",1,11,1209,40,"incongruent","Reward4",1,712,6,"face","aversive","sad"
"521",1,11,1209,41,"congruent","Reward4",0,461,6,"face","aversive","sad"
"522",1,11,1209,42,"congruent","Reward1",1,552,6,"face","aversive","sad"
"523",1,11,1209,43,"congruent","Reward1",1,462,6,"face","aversive","sad"
"524",1,11,1209,44,"incongruent","Reward1",1,446,6,"face","aversive","sad"
"525",1,11,1209,45,"incongruent","Reward2",0,600,6,"face","aversive","sad"
"526",1,11,1209,46,"congruent","Reward4",0,497,6,"face","aversive","sad"
"527",1,11,1209,47,"incongruent","Reward4",0,793,6,"face","aversive","sad"
"528",1,11,1209,48,"incongruent","Reward1",1,456,6,"face","aversive","sad"
"529",1,11,1209,49,"congruent","Reward4",1,602,6,"face","aversive","sad"
"530",1,11,1209,50,"incongruent","Reward4",1,608,6,"face","aversive","sad"
"531",1,11,1209,51,"incongruent","Reward2",1,889,6,"face","aversive","sad"
"532",1,11,1209,52,"incongruent","Reward2",1,671,6,"face","aversive","sad"
"533",1,11,1209,53,"incongruent","Reward1",1,936,6,"face","aversive","sad"
"534",1,11,1209,54,"incongruent","Reward4",1,644,6,"face","aversive","sad"
"535",1,11,1209,55,"congruent","Reward2",1,1149,6,"face","aversive","sad"
"536",1,11,1209,56,"congruent","Reward4",0,790,6,"face","aversive","sad"
"537",1,11,1209,57,"congruent","Reward1",0,412,6,"face","aversive","sad"
"538",1,11,1209,58,"incongruent","Reward4",0,961,6,"face","aversive","sad"
"539",1,11,1209,59,"congruent","Reward2",1,576,6,"face","aversive","sad"
"540",1,11,1209,60,"incongruent","Reward2",1,773,6,"face","aversive","sad"
"541",1,11,1209,61,"incongruent","Reward2",1,523,6,"face","aversive","sad"
"542",1,11,1209,62,"congruent","Reward2",1,498,6,"face","aversive","sad"
"543",1,11,1209,63,"incongruent","Reward1",1,665,6,"face","aversive","sad"
"544",1,11,1209,64,"incongruent","Reward1",1,844,6,"face","aversive","sad"
"545",1,11,1209,65,"incongruent","Reward4",0,797,6,"face","aversive","sad"
"546",1,11,1209,66,"incongruent","Reward1",1,847,6,"face","aversive","sad"
"547",1,11,1209,67,"congruent","Reward1",1,505,6,"face","aversive","sad"
"548",1,11,1209,68,"congruent","Reward2",0,536,6,"face","aversive","sad"
"549",1,11,1209,69,"congruent","Reward1",1,658,6,"face","aversive","sad"
"550",1,11,1209,70,"congruent","Reward1",1,715,6,"face","aversive","sad"
"551",1,11,1209,71,"congruent","Reward2",1,535,6,"face","aversive","sad"
"552",1,11,1209,72,"congruent","Reward4",1,574,6,"face","aversive","sad"
"553",1,11,1209,73,"congruent","Reward4",1,587,6,"face","aversive","sad"
"554",1,11,1209,74,"congruent","Reward4",1,572,6,"face","aversive","sad"
"555",1,11,1209,75,"congruent","Reward1",0,1166,6,"face","aversive","sad"
"556",1,11,1209,76,"incongruent","Reward4",1,448,6,"face","aversive","sad"
"557",1,11,1209,77,"congruent","Reward2",0,616,6,"face","aversive","sad"
"558",1,11,1209,78,"congruent","Reward4",1,546,6,"face","aversive","sad"
"559",1,11,1209,79,"incongruent","Reward1",0,732,6,"face","aversive","sad"
"560",1,11,1209,80,"incongruent","Reward4",1,590,6,"face","aversive","sad"
"561",1,11,1209,81,"congruent","Reward2",1,464,6,"face","aversive","sad"
"562",1,11,1209,82,"congruent","Reward1",1,566,6,"face","aversive","sad"
"563",1,11,1209,83,"incongruent","Reward1",0,642,6,"face","aversive","sad"
"564",1,11,1209,84,"incongruent","Reward4",1,750,6,"face","aversive","sad"
"565",1,11,1209,85,"incongruent","Reward1",1,926,6,"face","aversive","sad"
"566",1,11,1209,86,"incongruent","Reward1",1,684,6,"face","aversive","sad"
"567",1,11,1209,87,"congruent","Reward4",0,482,6,"face","aversive","sad"
"568",1,11,1209,88,"incongruent","Reward1",1,564,6,"face","aversive","sad"
"569",1,11,1209,89,"congruent","Reward1",1,771,6,"face","aversive","sad"
"570",1,11,1209,90,"incongruent","Reward2",1,644,6,"face","aversive","sad"
"571",1,11,1209,91,"congruent","Reward1",1,614,6,"face","aversive","sad"
"572",1,11,1209,92,"incongruent","Reward2",0,472,6,"face","aversive","sad"
"573",1,11,1209,93,"incongruent","Reward1",0,417,6,"face","aversive","sad"
"574",1,11,1209,94,"incongruent","Reward4",1,467,6,"face","aversive","sad"
"575",1,11,1209,95,"incongruent","Reward2",0,468,6,"face","aversive","sad"
"576",1,11,1209,96,"congruent","Reward4",1,815,6,"face","aversive","sad"
"577",2,10,763,1,"incongruent","Reward2",1,611,5,"liquid","appetitive","juice"
"578",2,10,763,2,"congruent","Reward1",0,828,5,"liquid","appetitive","juice"
"579",2,10,763,3,"incongruent","Reward1",1,540,5,"liquid","appetitive","juice"
"580",2,10,763,4,"congruent","Reward4",1,395,5,"liquid","appetitive","juice"
"581",2,10,763,5,"congruent","Reward2",1,487,5,"liquid","appetitive","juice"
"582",2,10,763,6,"incongruent","Reward4",1,523,5,"liquid","appetitive","juice"
"583",2,10,763,7,"incongruent","Reward1",1,923,5,"liquid","appetitive","juice"
"584",2,10,763,8,"incongruent","Reward4",1,598,5,"liquid","appetitive","juice"
"585",2,10,763,9,"incongruent","Reward1",0,852,5,"liquid","appetitive","juice"
"586",2,10,763,10,"incongruent","Reward2",1,520,5,"liquid","appetitive","juice"
"587",2,10,763,11,"congruent","Reward4",1,453,5,"liquid","appetitive","juice"
"588",2,10,763,12,"incongruent","Reward4",1,609,5,"liquid","appetitive","juice"
"589",2,10,763,13,"incongruent","Reward2",0,550,5,"liquid","appetitive","juice"
"590",2,10,763,14,"incongruent","Reward4",1,375,5,"liquid","appetitive","juice"
"591",2,10,763,15,"incongruent","Reward1",1,678,5,"liquid","appetitive","juice"
"592",2,10,763,16,"congruent","Reward2",1,707,5,"liquid","appetitive","juice"
"593",2,10,763,17,"congruent","Reward4",1,332,5,"liquid","appetitive","juice"
"594",2,10,763,18,"congruent","Reward2",1,505,5,"liquid","appetitive","juice"
"595",2,10,763,19,"congruent","Reward1",1,526,5,"liquid","appetitive","juice"
"596",2,10,763,20,"congruent","Reward4",1,620,5,"liquid","appetitive","juice"
"597",2,10,763,21,"congruent","Reward1",1,528,5,"liquid","appetitive","juice"
"598",2,10,763,22,"congruent","Reward4",1,567,5,"liquid","appetitive","juice"
"599",2,10,763,23,"congruent","Reward4",1,356,5,"liquid","appetitive","juice"
"600",2,10,763,24,"congruent","Reward2",1,667,5,"liquid","appetitive","juice"
"601",2,10,763,25,"congruent","Reward4",1,548,5,"liquid","appetitive","juice"
"602",2,10,763,26,"congruent","Reward2",1,458,5,"liquid","appetitive","juice"
"603",2,10,763,27,"incongruent","Reward1",1,752,5,"liquid","appetitive","juice"
"604",2,10,763,28,"congruent","Reward2",1,742,5,"liquid","appetitive","juice"
"605",2,10,763,29,"congruent","Reward2",0,1096,5,"liquid","appetitive","juice"
"606",2,10,763,30,"incongruent","Reward2",1,386,5,"liquid","appetitive","juice"
"607",2,10,763,31,"incongruent","Reward4",0,733,5,"liquid","appetitive","juice"
"608",2,10,763,32,"incongruent","Reward4",1,579,5,"liquid","appetitive","juice"
"609",2,10,763,33,"incongruent","Reward2",0,613,5,"liquid","appetitive","juice"
"610",2,10,763,34,"congruent","Reward1",1,557,5,"liquid","appetitive","juice"
"611",2,10,763,35,"incongruent","Reward4",1,538,5,"liquid","appetitive","juice"
"612",2,10,763,36,"congruent","Reward1",0,886,5,"liquid","appetitive","juice"
"613",2,10,763,37,"congruent","Reward4",1,554,5,"liquid","appetitive","juice"
"614",2,10,763,38,"incongruent","Reward1",0,407,5,"liquid","appetitive","juice"
"615",2,10,763,39,"incongruent","Reward2",0,480,5,"liquid","appetitive","juice"
"616",2,10,763,40,"incongruent","Reward4",1,406,5,"liquid","appetitive","juice"
"617",2,10,763,41,"congruent","Reward2",1,851,5,"liquid","appetitive","juice"
"618",2,10,763,42,"congruent","Reward1",1,713,5,"liquid","appetitive","juice"
"619",2,10,763,43,"incongruent","Reward2",1,677,5,"liquid","appetitive","juice"
"620",2,10,763,44,"incongruent","Reward4",1,607,5,"liquid","appetitive","juice"
"621",2,10,763,45,"congruent","Reward2",0,984,5,"liquid","appetitive","juice"
"622",2,10,763,46,"congruent","Reward1",1,934,5,"liquid","appetitive","juice"
"623",2,10,763,47,"incongruent","Reward2",1,565,5,"liquid","appetitive","juice"
"624",2,10,763,48,"congruent","Reward1",1,956,5,"liquid","appetitive","juice"
"625",2,10,763,49,"incongruent","Reward4",1,458,5,"liquid","appetitive","juice"
"626",2,10,763,50,"congruent","Reward4",1,774,5,"liquid","appetitive","juice"
"627",2,10,763,51,"congruent","Reward1",1,408,5,"liquid","appetitive","juice"
"628",2,10,763,52,"incongruent","Reward1",1,344,5,"liquid","appetitive","juice"
"629",2,10,763,53,"congruent","Reward2",0,686,5,"liquid","appetitive","juice"
"630",2,10,763,54,"incongruent","Reward1",0,201,5,"liquid","appetitive","juice"
"631",2,10,763,55,"incongruent","Reward2",1,482,5,"liquid","appetitive","juice"
"632",2,10,763,56,"incongruent","Reward2",1,389,5,"liquid","appetitive","juice"
"633",2,10,763,57,"incongruent","Reward1",0,1672,5,"liquid","appetitive","juice"
"634",2,10,763,58,"incongruent","Reward2",1,441,5,"liquid","appetitive","juice"
"635",2,10,763,59,"congruent","Reward4",1,472,5,"liquid","appetitive","juice"
"636",2,10,763,60,"congruent","Reward1",1,868,5,"liquid","appetitive","juice"
"637",2,10,763,61,"incongruent","Reward2",0,895,5,"liquid","appetitive","juice"
"638",2,10,763,62,"incongruent","Reward2",1,764,5,"liquid","appetitive","juice"
"639",2,10,763,63,"incongruent","Reward2",0,669,5,"liquid","appetitive","juice"
"640",2,10,763,64,"incongruent","Reward4",1,395,5,"liquid","appetitive","juice"
"641",2,10,763,65,"incongruent","Reward4",1,511,5,"liquid","appetitive","juice"
"642",2,10,763,66,"incongruent","Reward4",1,528,5,"liquid","appetitive","juice"
"643",2,10,763,67,"incongruent","Reward1",1,542,5,"liquid","appetitive","juice"
"644",2,10,763,68,"incongruent","Reward2",0,995,5,"liquid","appetitive","juice"
"645",2,10,763,69,"congruent","Reward1",1,392,5,"liquid","appetitive","juice"
"646",2,10,763,70,"congruent","Reward2",1,713,5,"liquid","appetitive","juice"
"647",2,10,763,71,"congruent","Reward4",1,571,5,"liquid","appetitive","juice"
"648",2,10,763,72,"incongruent","Reward4",1,693,5,"liquid","appetitive","juice"
"649",2,10,763,73,"incongruent","Reward4",1,685,5,"liquid","appetitive","juice"
"650",2,10,763,74,"congruent","Reward2",1,380,5,"liquid","appetitive","juice"
"651",2,10,763,75,"congruent","Reward4",1,626,5,"liquid","appetitive","juice"
"652",2,10,763,76,"incongruent","Reward2",1,1055,5,"liquid","appetitive","juice"
"653",2,10,763,77,"congruent","Reward4",1,224,5,"liquid","appetitive","juice"
"654",2,10,763,78,"congruent","Reward4",1,554,5,"liquid","appetitive","juice"
"655",2,10,763,79,"incongruent","Reward4",1,586,5,"liquid","appetitive","juice"
"656",2,10,763,80,"congruent","Reward1",1,322,5,"liquid","appetitive","juice"
"657",2,10,763,81,"congruent","Reward4",0,1009,5,"liquid","appetitive","juice"
"658",2,10,763,82,"congruent","Reward1",1,959,5,"liquid","appetitive","juice"
"659",2,10,763,83,"congruent","Reward1",1,369,5,"liquid","appetitive","juice"
"660",2,10,763,84,"congruent","Reward2",0,952,5,"liquid","appetitive","juice"
"661",2,10,763,85,"incongruent","Reward1",0,317,5,"liquid","appetitive","juice"
"662",2,10,763,86,"incongruent","Reward1",0,0,5,"liquid","appetitive","juice"
"663",2,10,763,87,"incongruent","Reward1",0,253,5,"liquid","appetitive","juice"
"664",2,10,763,88,"congruent","Reward2",1,377,5,"liquid","appetitive","juice"
"665",2,10,763,89,"congruent","Reward1",1,382,5,"liquid","appetitive","juice"
"666",2,10,763,90,"incongruent","Reward1",0,1286,5,"liquid","appetitive","juice"
"667",2,10,763,91,"congruent","Reward2",1,579,5,"liquid","appetitive","juice"
"668",2,10,763,92,"congruent","Reward1",0,880,5,"liquid","appetitive","juice"
"669",2,10,763,93,"incongruent","Reward1",0,366,5,"liquid","appetitive","juice"
"670",2,10,763,94,"congruent","Reward4",1,563,5,"liquid","appetitive","juice"
"671",2,10,763,95,"congruent","Reward2",0,366,5,"liquid","appetitive","juice"
"672",2,10,763,96,"incongruent","Reward1",0,0,5,"liquid","appetitive","juice"
"673",2,11,763,1,"incongruent","Reward1",1,397,6,"liquid","neutral","neutral"
"674",2,11,763,2,"incongruent","Reward1",0,0,6,"liquid","neutral","neutral"
"675",2,11,763,3,"congruent","Reward1",1,191,6,"liquid","neutral","neutral"
"676",2,11,763,4,"congruent","Reward1",0,0,6,"liquid","neutral","neutral"
"677",2,11,763,5,"incongruent","Reward2",0,1258,6,"liquid","neutral","neutral"
"678",2,11,763,6,"congruent","Reward1",0,0,6,"liquid","neutral","neutral"
"679",2,11,763,7,"incongruent","Reward2",1,1186,6,"liquid","neutral","neutral"
"680",2,11,763,8,"congruent","Reward4",0,342,6,"liquid","neutral","neutral"
"681",2,11,763,9,"incongruent","Reward2",0,0,6,"liquid","neutral","neutral"
"682",2,11,763,10,"incongruent","Reward2",0,502,6,"liquid","neutral","neutral"
"683",2,11,763,11,"congruent","Reward1",0,0,6,"liquid","neutral","neutral"
"684",2,11,763,12,"incongruent","Reward2",0,0,6,"liquid","neutral","neutral"
"685",2,11,763,13,"congruent","Reward4",0,0,6,"liquid","neutral","neutral"
"686",2,11,763,14,"congruent","Reward2",0,0,6,"liquid","neutral","neutral"
"687",2,11,763,15,"incongruent","Reward1",1,1769,6,"liquid","neutral","neutral"
"688",2,11,763,16,"incongruent","Reward1",0,367,6,"liquid","neutral","neutral"
"689",2,11,763,17,"congruent","Reward4",0,0,6,"liquid","neutral","neutral"
"690",2,11,763,18,"incongruent","Reward2",0,0,6,"liquid","neutral","neutral"
"691",2,11,763,19,"congruent","Reward4",1,1622,6,"liquid","neutral","neutral"
"692",2,11,763,20,"congruent","Reward1",0,0,6,"liquid","neutral","neutral"
"693",2,11,763,21,"congruent","Reward2",0,0,6,"liquid","neutral","neutral"
"694",2,11,763,22,"incongruent","Reward4",0,581,6,"liquid","neutral","neutral"
"695",2,11,763,23,"congruent","Reward2",0,1602,6,"liquid","neutral","neutral"
"696",2,11,763,24,"incongruent","Reward2",0,0,6,"liquid","neutral","neutral"
"697",2,11,763,25,"incongruent","Reward1",0,0,6,"liquid","neutral","neutral"
"698",2,11,763,26,"incongruent","Reward1",0,985,6,"liquid","neutral","neutral"
"699",2,11,763,27,"incongruent","Reward4",0,0,6,"liquid","neutral","neutral"
"700",2,11,763,28,"congruent","Reward4",0,398,6,"liquid","neutral","neutral"
"701",2,11,763,29,"congruent","Reward2",1,422,6,"liquid","neutral","neutral"
"702",2,11,763,30,"incongruent","Reward4",0,0,6,"liquid","neutral","neutral"
"703",2,11,763,31,"incongruent","Reward2",0,521,6,"liquid","neutral","neutral"
"704",2,11,763,32,"incongruent","Reward2",0,0,6,"liquid","neutral","neutral"
"705",2,11,763,33,"congruent","Reward4",0,0,6,"liquid","neutral","neutral"
"706",2,11,763,34,"incongruent","Reward4",0,0,6,"liquid","neutral","neutral"
"707",2,11,763,35,"congruent","Reward4",0,437,6,"liquid","neutral","neutral"
"708",2,11,763,36,"congruent","Reward2",0,0,6,"liquid","neutral","neutral"
"709",2,11,763,37,"incongruent","Reward4",1,1177,6,"liquid","neutral","neutral"
"710",2,11,763,38,"incongruent","Reward4",0,430,6,"liquid","neutral","neutral"
"711",2,11,763,39,"incongruent","Reward4",0,559,6,"liquid","neutral","neutral"
"712",2,11,763,40,"incongruent","Reward4",1,513,6,"liquid","neutral","neutral"
"713",2,11,763,41,"congruent","Reward2",0,684,6,"liquid","neutral","neutral"
"714",2,11,763,42,"congruent","Reward1",0,0,6,"liquid","neutral","neutral"
"715",2,11,763,43,"congruent","Reward4",0,277,6,"liquid","neutral","neutral"
"716",2,11,763,44,"congruent","Reward2",0,1007,6,"liquid","neutral","neutral"
"717",2,11,763,45,"incongruent","Reward1",0,445,6,"liquid","neutral","neutral"
"718",2,11,763,46,"incongruent","Reward1",1,1250,6,"liquid","neutral","neutral"
"719",2,11,763,47,"congruent","Reward2",0,579,6,"liquid","neutral","neutral"
"720",2,11,763,48,"incongruent","Reward1",1,516,6,"liquid","neutral","neutral"
"721",2,11,763,49,"incongruent","Reward2",0,655,6,"liquid","neutral","neutral"
"722",2,11,763,50,"congruent","Reward1",0,365,6,"liquid","neutral","neutral"
"723",2,11,763,51,"congruent","Reward4",1,651,6,"liquid","neutral","neutral"
"724",2,11,763,52,"incongruent","Reward4",0,897,6,"liquid","neutral","neutral"
"725",2,11,763,53,"incongruent","Reward2",0,0,6,"liquid","neutral","neutral"
"726",2,11,763,54,"incongruent","Reward1",0,0,6,"liquid","neutral","neutral"
"727",2,11,763,55,"congruent","Reward1",1,702,6,"liquid","neutral","neutral"
"728",2,11,763,56,"congruent","Reward1",0,0,6,"liquid","neutral","neutral"
"729",2,11,763,57,"congruent","Reward4",0,415,6,"liquid","neutral","neutral"
"730",2,11,763,58,"incongruent","Reward1",0,0,6,"liquid","neutral","neutral"
"731",2,11,763,59,"congruent","Reward2",0,0,6,"liquid","neutral","neutral"
"732",2,11,763,60,"incongruent","Reward2",0,645,6,"liquid","neutral","neutral"
"733",2,11,763,61,"congruent","Reward4",1,478,6,"liquid","neutral","neutral"
"734",2,11,763,62,"congruent","Reward4",1,917,6,"liquid","neutral","neutral"
"735",2,11,763,63,"congruent","Reward1",0,1107,6,"liquid","neutral","neutral"
"736",2,11,763,64,"congruent","Reward2",0,0,6,"liquid","neutral","neutral"
"737",2,11,763,65,"congruent","Reward2",1,358,6,"liquid","neutral","neutral"
"738",2,11,763,66,"congruent","Reward1",0,0,6,"liquid","neutral","neutral"
"739",2,11,763,67,"incongruent","Reward1",0,1171,6,"liquid","neutral","neutral"
"740",2,11,763,68,"congruent","Reward2",1,1704,6,"liquid","neutral","neutral"
"741",2,11,763,69,"congruent","Reward2",1,675,6,"liquid","neutral","neutral"
"742",2,11,763,70,"congruent","Reward2",0,0,6,"liquid","neutral","neutral"
"743",2,11,763,71,"incongruent","Reward4",1,621,6,"liquid","neutral","neutral"
"744",2,11,763,72,"incongruent","Reward2",0,0,6,"liquid","neutral","neutral"
"745",2,11,763,73,"incongruent","Reward4",0,0,6,"liquid","neutral","neutral"
"746",2,11,763,74,"incongruent","Reward2",1,507,6,"liquid","neutral","neutral"
"747",2,11,763,75,"incongruent","Reward4",1,397,6,"liquid","neutral","neutral"
"748",2,11,763,76,"congruent","Reward1",0,0,6,"liquid","neutral","neutral"
"749",2,11,763,77,"incongruent","Reward2",1,1364,6,"liquid","neutral","neutral"
"750",2,11,763,78,"incongruent","Reward4",1,487,6,"liquid","neutral","neutral"
"751",2,11,763,79,"incongruent","Reward1",0,0,6,"liquid","neutral","neutral"
"752",2,11,763,80,"incongruent","Reward4",1,448,6,"liquid","neutral","neutral"
"753",2,11,763,81,"congruent","Reward1",0,1607,6,"liquid","neutral","neutral"
"754",2,11,763,82,"congruent","Reward4",0,680,6,"liquid","neutral","neutral"
"755",2,11,763,83,"congruent","Reward4",1,528,6,"liquid","neutral","neutral"
"756",2,11,763,84,"congruent","Reward2",1,1179,6,"liquid","neutral","neutral"
"757",2,11,763,85,"incongruent","Reward1",0,0,6,"liquid","neutral","neutral"
"758",2,11,763,86,"incongruent","Reward4",1,334,6,"liquid","neutral","neutral"
"759",2,11,763,87,"congruent","Reward1",0,0,6,"liquid","neutral","neutral"
"760",2,11,763,88,"congruent","Reward4",1,478,6,"liquid","neutral","neutral"
"761",2,11,763,89,"incongruent","Reward2",0,0,6,"liquid","neutral","neutral"
"762",2,11,763,90,"incongruent","Reward1",0,0,6,"liquid","neutral","neutral"
"763",2,11,763,91,"incongruent","Reward4",1,350,6,"liquid","neutral","neutral"
"764",2,11,763,92,"congruent","Reward2",1,980,6,"liquid","neutral","neutral"
"765",2,11,763,93,"incongruent","Reward1",0,0,6,"liquid","neutral","neutral"
"766",2,11,763,94,"congruent","Reward1",0,1205,6,"liquid","neutral","neutral"
"767",2,11,763,95,"congruent","Reward4",1,574,6,"liquid","neutral","neutral"
"768",2,11,763,96,"congruent","Reward1",0,733,6,"liquid","neutral","neutral"
"769",2,9,763,1,"congruent","Reward2",1,682,4,"liquid","aversive","saltwater"
"770",2,9,763,2,"incongruent","Reward2",1,560,4,"liquid","aversive","saltwater"
"771",2,9,763,3,"congruent","Reward2",0,0,4,"liquid","aversive","saltwater"
"772",2,9,763,4,"incongruent","Reward2",0,0,4,"liquid","aversive","saltwater"
"773",2,9,763,5,"incongruent","Reward4",1,475,4,"liquid","aversive","saltwater"
"774",2,9,763,6,"congruent","Reward2",0,0,4,"liquid","aversive","saltwater"
"775",2,9,763,7,"congruent","Reward4",1,488,4,"liquid","aversive","saltwater"
"776",2,9,763,8,"incongruent","Reward1",0,0,4,"liquid","aversive","saltwater"
"777",2,9,763,9,"incongruent","Reward2",0,0,4,"liquid","aversive","saltwater"
"778",2,9,763,10,"congruent","Reward1",0,0,4,"liquid","aversive","saltwater"
"779",2,9,763,11,"congruent","Reward1",0,0,4,"liquid","aversive","saltwater"
"780",2,9,763,12,"incongruent","Reward2",0,0,4,"liquid","aversive","saltwater"
"781",2,9,763,13,"congruent","Reward1",0,0,4,"liquid","aversive","saltwater"
"782",2,9,763,14,"congruent","Reward4",1,518,4,"liquid","aversive","saltwater"
"783",2,9,763,15,"congruent","Reward2",0,0,4,"liquid","aversive","saltwater"
"784",2,9,763,16,"incongruent","Reward4",0,0,4,"liquid","aversive","saltwater"
"785",2,9,763,17,"incongruent","Reward2",0,0,4,"liquid","aversive","saltwater"
"786",2,9,763,18,"incongruent","Reward4",1,358,4,"liquid","aversive","saltwater"
"787",2,9,763,19,"congruent","Reward2",0,0,4,"liquid","aversive","saltwater"
"788",2,9,763,20,"congruent","Reward4",1,670,4,"liquid","aversive","saltwater"
"789",2,9,763,21,"congruent","Reward1",0,0,4,"liquid","aversive","saltwater"
"790",2,9,763,22,"congruent","Reward1",0,0,4,"liquid","aversive","saltwater"
"791",2,9,763,23,"congruent","Reward2",0,0,4,"liquid","aversive","saltwater"
"792",2,9,763,24,"incongruent","Reward4",1,455,4,"liquid","aversive","saltwater"
"793",2,9,763,25,"congruent","Reward4",0,0,4,"liquid","aversive","saltwater"
"794",2,9,763,26,"congruent","Reward2",0,0,4,"liquid","aversive","saltwater"
"795",2,9,763,27,"congruent","Reward1",0,0,4,"liquid","aversive","saltwater"
"796",2,9,763,28,"incongruent","Reward2",0,0,4,"liquid","aversive","saltwater"
"797",2,9,763,29,"incongruent","Reward2",0,0,4,"liquid","aversive","saltwater"
"798",2,9,763,30,"incongruent","Reward1",0,1476,4,"liquid","aversive","saltwater"
"799",2,9,763,31,"congruent","Reward2",1,425,4,"liquid","aversive","saltwater"
"800",2,9,763,32,"incongruent","Reward1",0,0,4,"liquid","aversive","saltwater"
"801",2,9,763,33,"congruent","Reward4",1,543,4,"liquid","aversive","saltwater"
"802",2,9,763,34,"congruent","Reward2",0,1719,4,"liquid","aversive","saltwater"
"803",2,9,763,35,"incongruent","Reward4",1,645,4,"liquid","aversive","saltwater"
"804",2,9,763,36,"congruent","Reward4",1,740,4,"liquid","aversive","saltwater"
"805",2,9,763,37,"incongruent","Reward4",1,513,4,"liquid","aversive","saltwater"
"806",2,9,763,38,"incongruent","Reward2",0,0,4,"liquid","aversive","saltwater"
"807",2,9,763,39,"incongruent","Reward1",0,0,4,"liquid","aversive","saltwater"
"808",2,9,763,40,"incongruent","Reward4",1,576,4,"liquid","aversive","saltwater"
"809",2,9,763,41,"congruent","Reward4",1,790,4,"liquid","aversive","saltwater"
"810",2,9,763,42,"congruent","Reward1",0,0,4,"liquid","aversive","saltwater"
"811",2,9,763,43,"congruent","Reward1",0,0,4,"liquid","aversive","saltwater"
"812",2,9,763,44,"incongruent","Reward1",0,0,4,"liquid","aversive","saltwater"
"813",2,9,763,45,"incongruent","Reward2",0,0,4,"liquid","aversive","saltwater"
"814",2,9,763,46,"congruent","Reward4",0,0,4,"liquid","aversive","saltwater"
"815",2,9,763,47,"incongruent","Reward4",0,1033,4,"liquid","aversive","saltwater"
"816",2,9,763,48,"incongruent","Reward1",0,0,4,"liquid","aversive","saltwater"
"817",2,9,763,49,"congruent","Reward4",0,0,4,"liquid","aversive","saltwater"
"818",2,9,763,50,"incongruent","Reward4",1,529,4,"liquid","aversive","saltwater"
"819",2,9,763,51,"incongruent","Reward2",0,0,4,"liquid","aversive","saltwater"
"820",2,9,763,52,"incongruent","Reward2",0,0,4,"liquid","aversive","saltwater"
"821",2,9,763,53,"incongruent","Reward1",0,0,4,"liquid","aversive","saltwater"
"822",2,9,763,54,"incongruent","Reward4",0,1123,4,"liquid","aversive","saltwater"
"823",2,9,763,55,"congruent","Reward2",0,0,4,"liquid","aversive","saltwater"
"824",2,9,763,56,"congruent","Reward4",0,0,4,"liquid","aversive","saltwater"
"825",2,9,763,57,"congruent","Reward1",0,0,4,"liquid","aversive","saltwater"
"826",2,9,763,58,"incongruent","Reward4",0,988,4,"liquid","aversive","saltwater"
"827",2,9,763,59,"congruent","Reward2",1,363,4,"liquid","aversive","saltwater"
"828",2,9,763,60,"incongruent","Reward2",0,0,4,"liquid","aversive","saltwater"
"829",2,9,763,61,"incongruent","Reward2",1,1621,4,"liquid","aversive","saltwater"
"830",2,9,763,62,"congruent","Reward2",0,0,4,"liquid","aversive","saltwater"
"831",2,9,763,63,"incongruent","Reward1",0,1024,4,"liquid","aversive","saltwater"
"832",2,9,763,64,"incongruent","Reward1",1,924,4,"liquid","aversive","saltwater"
"833",2,9,763,65,"incongruent","Reward4",1,353,4,"liquid","aversive","saltwater"
"834",2,9,763,66,"incongruent","Reward1",0,0,4,"liquid","aversive","saltwater"
"835",2,9,763,67,"congruent","Reward1",0,0,4,"liquid","aversive","saltwater"
"836",2,9,763,68,"congruent","Reward2",0,309,4,"liquid","aversive","saltwater"
"837",2,9,763,69,"congruent","Reward1",1,438,4,"liquid","aversive","saltwater"
"838",2,9,763,70,"congruent","Reward1",0,621,4,"liquid","aversive","saltwater"
"839",2,9,763,71,"congruent","Reward2",0,0,4,"liquid","aversive","saltwater"
"840",2,9,763,72,"congruent","Reward4",1,597,4,"liquid","aversive","saltwater"
"841",2,9,763,73,"congruent","Reward4",1,464,4,"liquid","aversive","saltwater"
"842",2,9,763,74,"congruent","Reward4",0,0,4,"liquid","aversive","saltwater"
"843",2,9,763,75,"congruent","Reward1",0,0,4,"liquid","aversive","saltwater"
"844",2,9,763,76,"incongruent","Reward4",0,0,4,"liquid","aversive","saltwater"
"845",2,9,763,77,"congruent","Reward2",0,0,4,"liquid","aversive","saltwater"
"846",2,9,763,78,"congruent","Reward4",0,0,4,"liquid","aversive","saltwater"
"847",2,9,763,79,"incongruent","Reward1",0,0,4,"liquid","aversive","saltwater"
"848",2,9,763,80,"incongruent","Reward4",0,0,4,"liquid","aversive","saltwater"
"849",2,9,763,81,"congruent","Reward2",0,0,4,"liquid","aversive","saltwater"
"850",2,9,763,82,"congruent","Reward1",0,0,4,"liquid","aversive","saltwater"
"851",2,9,763,83,"incongruent","Reward1",0,0,4,"liquid","aversive","saltwater"
"852",2,9,763,84,"incongruent","Reward4",0,0,4,"liquid","aversive","saltwater"
"853",2,9,763,85,"incongruent","Reward1",0,0,4,"liquid","aversive","saltwater"
"854",2,9,763,86,"incongruent","Reward1",0,0,4,"liquid","aversive","saltwater"
"855",2,9,763,87,"congruent","Reward4",0,0,4,"liquid","aversive","saltwater"
"856",2,9,763,88,"incongruent","Reward1",0,0,4,"liquid","aversive","saltwater"
"857",2,9,763,89,"congruent","Reward1",0,0,4,"liquid","aversive","saltwater"
"858",2,9,763,90,"incongruent","Reward2",0,0,4,"liquid","aversive","saltwater"
"859",2,9,763,91,"congruent","Reward1",0,0,4,"liquid","aversive","saltwater"
"860",2,9,763,92,"incongruent","Reward2",0,0,4,"liquid","aversive","saltwater"
"861",2,9,763,93,"incongruent","Reward1",0,0,4,"liquid","aversive","saltwater"
"862",2,9,763,94,"incongruent","Reward4",0,0,4,"liquid","aversive","saltwater"
"863",2,9,763,95,"incongruent","Reward2",0,0,4,"liquid","aversive","saltwater"
"864",2,9,763,96,"congruent","Reward4",0,0,4,"liquid","aversive","saltwater"
"865",2,8,763,1,"congruent","Reward2",1,430,3,"face","appetitive","happy"
"866",2,8,763,2,"incongruent","Reward2",1,420,3,"face","appetitive","happy"
"867",2,8,763,3,"congruent","Reward2",1,549,3,"face","appetitive","happy"
"868",2,8,763,4,"incongruent","Reward2",1,472,3,"face","appetitive","happy"
"869",2,8,763,5,"incongruent","Reward4",1,454,3,"face","appetitive","happy"
"870",2,8,763,6,"congruent","Reward2",1,432,3,"face","appetitive","happy"
"871",2,8,763,7,"congruent","Reward4",1,464,3,"face","appetitive","happy"
"872",2,8,763,8,"incongruent","Reward1",1,685,3,"face","appetitive","happy"
"873",2,8,763,9,"incongruent","Reward2",1,406,3,"face","appetitive","happy"
"874",2,8,763,10,"congruent","Reward1",0,687,3,"face","appetitive","happy"
"875",2,8,763,11,"congruent","Reward1",1,367,3,"face","appetitive","happy"
"876",2,8,763,12,"incongruent","Reward2",1,732,3,"face","appetitive","happy"
"877",2,8,763,13,"congruent","Reward1",1,308,3,"face","appetitive","happy"
"878",2,8,763,14,"congruent","Reward4",1,670,3,"face","appetitive","happy"
"879",2,8,763,15,"congruent","Reward2",1,1221,3,"face","appetitive","happy"
"880",2,8,763,16,"incongruent","Reward4",1,390,3,"face","appetitive","happy"
"881",2,8,763,17,"incongruent","Reward2",1,431,3,"face","appetitive","happy"
"882",2,8,763,18,"incongruent","Reward4",1,523,3,"face","appetitive","happy"
"883",2,8,763,19,"congruent","Reward2",0,377,3,"face","appetitive","happy"
"884",2,8,763,20,"congruent","Reward4",1,399,3,"face","appetitive","happy"
"885",2,8,763,21,"congruent","Reward1",1,842,3,"face","appetitive","happy"
"886",2,8,763,22,"congruent","Reward1",1,591,3,"face","appetitive","happy"
"887",2,8,763,23,"congruent","Reward2",1,487,3,"face","appetitive","happy"
"888",2,8,763,24,"incongruent","Reward4",1,620,3,"face","appetitive","happy"
"889",2,8,763,25,"congruent","Reward4",0,404,3,"face","appetitive","happy"
"890",2,8,763,26,"congruent","Reward2",1,596,3,"face","appetitive","happy"
"891",2,8,763,27,"congruent","Reward1",1,510,3,"face","appetitive","happy"
"892",2,8,763,28,"incongruent","Reward2",1,622,3,"face","appetitive","happy"
"893",2,8,763,29,"incongruent","Reward2",0,376,3,"face","appetitive","happy"
"894",2,8,763,30,"incongruent","Reward1",0,481,3,"face","appetitive","happy"
"895",2,8,763,31,"congruent","Reward2",1,403,3,"face","appetitive","happy"
"896",2,8,763,32,"incongruent","Reward1",1,401,3,"face","appetitive","happy"
"897",2,8,763,33,"congruent","Reward4",1,872,3,"face","appetitive","happy"
"898",2,8,763,34,"congruent","Reward2",1,469,3,"face","appetitive","happy"
"899",2,8,763,35,"incongruent","Reward4",1,513,3,"face","appetitive","happy"
"900",2,8,763,36,"congruent","Reward4",1,487,3,"face","appetitive","happy"
"901",2,8,763,37,"incongruent","Reward4",1,1035,3,"face","appetitive","happy"
"902",2,8,763,38,"incongruent","Reward2",1,539,3,"face","appetitive","happy"
"903",2,8,763,39,"incongruent","Reward1",1,651,3,"face","appetitive","happy"
"904",2,8,763,40,"incongruent","Reward4",1,500,3,"face","appetitive","happy"
"905",2,8,763,41,"congruent","Reward4",1,511,3,"face","appetitive","happy"
"906",2,8,763,42,"congruent","Reward1",1,547,3,"face","appetitive","happy"
"907",2,8,763,43,"congruent","Reward1",1,661,3,"face","appetitive","happy"
"908",2,8,763,44,"incongruent","Reward1",1,413,3,"face","appetitive","happy"
"909",2,8,763,45,"incongruent","Reward2",1,492,3,"face","appetitive","happy"
"910",2,8,763,46,"congruent","Reward4",1,506,3,"face","appetitive","happy"
"911",2,8,763,47,"incongruent","Reward4",1,600,3,"face","appetitive","happy"
"912",2,8,763,48,"incongruent","Reward1",1,557,3,"face","appetitive","happy"
"913",2,8,763,49,"congruent","Reward4",1,631,3,"face","appetitive","happy"
"914",2,8,763,50,"incongruent","Reward4",1,778,3,"face","appetitive","happy"
"915",2,8,763,51,"incongruent","Reward2",1,335,3,"face","appetitive","happy"
"916",2,8,763,52,"incongruent","Reward2",1,420,3,"face","appetitive","happy"
"917",2,8,763,53,"incongruent","Reward1",1,502,3,"face","appetitive","happy"
"918",2,8,763,54,"incongruent","Reward4",1,418,3,"face","appetitive","happy"
"919",2,8,763,55,"congruent","Reward2",1,436,3,"face","appetitive","happy"
"920",2,8,763,56,"congruent","Reward4",1,827,3,"face","appetitive","happy"
"921",2,8,763,57,"congruent","Reward1",1,373,3,"face","appetitive","happy"
"922",2,8,763,58,"incongruent","Reward4",1,407,3,"face","appetitive","happy"
"923",2,8,763,59,"congruent","Reward2",1,395,3,"face","appetitive","happy"
"924",2,8,763,60,"incongruent","Reward2",1,382,3,"face","appetitive","happy"
"925",2,8,763,61,"incongruent","Reward2",1,619,3,"face","appetitive","happy"
"926",2,8,763,62,"congruent","Reward2",1,384,3,"face","appetitive","happy"
"927",2,8,763,63,"incongruent","Reward1",1,654,3,"face","appetitive","happy"
"928",2,8,763,64,"incongruent","Reward1",1,804,3,"face","appetitive","happy"
"929",2,8,763,65,"incongruent","Reward4",1,589,3,"face","appetitive","happy"
"930",2,8,763,66,"incongruent","Reward1",1,704,3,"face","appetitive","happy"
"931",2,8,763,67,"congruent","Reward1",1,409,3,"face","appetitive","happy"
"932",2,8,763,68,"congruent","Reward2",1,422,3,"face","appetitive","happy"
"933",2,8,763,69,"congruent","Reward1",1,545,3,"face","appetitive","happy"
"934",2,8,763,70,"congruent","Reward1",1,439,3,"face","appetitive","happy"
"935",2,8,763,71,"congruent","Reward2",0,799,3,"face","appetitive","happy"
"936",2,8,763,72,"congruent","Reward4",1,421,3,"face","appetitive","happy"
"937",2,8,763,73,"congruent","Reward4",1,547,3,"face","appetitive","happy"
"938",2,8,763,74,"congruent","Reward4",1,455,3,"face","appetitive","happy"
"939",2,8,763,75,"congruent","Reward1",1,442,3,"face","appetitive","happy"
"940",2,8,763,76,"incongruent","Reward4",1,464,3,"face","appetitive","happy"
"941",2,8,763,77,"congruent","Reward2",1,342,3,"face","appetitive","happy"
"942",2,8,763,78,"congruent","Reward4",1,612,3,"face","appetitive","happy"
"943",2,8,763,79,"incongruent","Reward1",1,553,3,"face","appetitive","happy"
"944",2,8,763,80,"incongruent","Reward4",1,362,3,"face","appetitive","happy"
"945",2,8,763,81,"congruent","Reward2",1,371,3,"face","appetitive","happy"
"946",2,8,763,82,"congruent","Reward1",1,532,3,"face","appetitive","happy"
"947",2,8,763,83,"incongruent","Reward1",0,482,3,"face","appetitive","happy"
"948",2,8,763,84,"incongruent","Reward4",1,484,3,"face","appetitive","happy"
"949",2,8,763,85,"incongruent","Reward1",1,527,3,"face","appetitive","happy"
"950",2,8,763,86,"incongruent","Reward1",1,466,3,"face","appetitive","happy"
"951",2,8,763,87,"congruent","Reward4",1,515,3,"face","appetitive","happy"
"952",2,8,763,88,"incongruent","Reward1",1,445,3,"face","appetitive","happy"
"953",2,8,763,89,"congruent","Reward1",1,722,3,"face","appetitive","happy"
"954",2,8,763,90,"incongruent","Reward2",1,562,3,"face","appetitive","happy"
"955",2,8,763,91,"congruent","Reward1",1,412,3,"face","appetitive","happy"
"956",2,8,763,92,"incongruent","Reward2",1,506,3,"face","appetitive","happy"
"957",2,8,763,93,"incongruent","Reward1",1,678,3,"face","appetitive","happy"
"958",2,8,763,94,"incongruent","Reward4",1,586,3,"face","appetitive","happy"
"959",2,8,763,95,"incongruent","Reward2",0,426,3,"face","appetitive","happy"
"960",2,8,763,96,"congruent","Reward4",0,466,3,"face","appetitive","happy"
"961",2,6,763,1,"congruent","Reward2",0,0,1,"face","neutral","neutral"
"962",2,6,763,2,"incongruent","Reward2",1,878,1,"face","neutral","neutral"
"963",2,6,763,3,"congruent","Reward2",1,1143,1,"face","neutral","neutral"
"964",2,6,763,4,"incongruent","Reward2",1,1317,1,"face","neutral","neutral"
"965",2,6,763,5,"incongruent","Reward4",1,942,1,"face","neutral","neutral"
"966",2,6,763,6,"congruent","Reward2",1,603,1,"face","neutral","neutral"
"967",2,6,763,7,"congruent","Reward4",1,544,1,"face","neutral","neutral"
"968",2,6,763,8,"incongruent","Reward1",1,543,1,"face","neutral","neutral"
"969",2,6,763,9,"incongruent","Reward2",1,501,1,"face","neutral","neutral"
"970",2,6,763,10,"congruent","Reward1",1,729,1,"face","neutral","neutral"
"971",2,6,763,11,"congruent","Reward1",1,791,1,"face","neutral","neutral"
"972",2,6,763,12,"incongruent","Reward2",1,1096,1,"face","neutral","neutral"
"973",2,6,763,13,"congruent","Reward1",1,841,1,"face","neutral","neutral"
"974",2,6,763,14,"congruent","Reward4",1,834,1,"face","neutral","neutral"
"975",2,6,763,15,"congruent","Reward2",1,714,1,"face","neutral","neutral"
"976",2,6,763,16,"incongruent","Reward4",1,1293,1,"face","neutral","neutral"
"977",2,6,763,17,"incongruent","Reward2",1,530,1,"face","neutral","neutral"
"978",2,6,763,18,"incongruent","Reward4",1,698,1,"face","neutral","neutral"
"979",2,6,763,19,"congruent","Reward2",1,832,1,"face","neutral","neutral"
"980",2,6,763,20,"congruent","Reward4",1,632,1,"face","neutral","neutral"
"981",2,6,763,21,"congruent","Reward1",1,757,1,"face","neutral","neutral"
"982",2,6,763,22,"congruent","Reward1",1,735,1,"face","neutral","neutral"
"983",2,6,763,23,"congruent","Reward2",1,1047,1,"face","neutral","neutral"
"984",2,6,763,24,"incongruent","Reward4",1,1267,1,"face","neutral","neutral"
"985",2,6,763,25,"congruent","Reward4",1,535,1,"face","neutral","neutral"
"986",2,6,763,26,"congruent","Reward2",1,427,1,"face","neutral","neutral"
"987",2,6,763,27,"congruent","Reward1",1,669,1,"face","neutral","neutral"
"988",2,6,763,28,"incongruent","Reward2",1,628,1,"face","neutral","neutral"
"989",2,6,763,29,"incongruent","Reward2",1,950,1,"face","neutral","neutral"
"990",2,6,763,30,"incongruent","Reward1",1,616,1,"face","neutral","neutral"
"991",2,6,763,31,"congruent","Reward2",1,465,1,"face","neutral","neutral"
"992",2,6,763,32,"incongruent","Reward1",1,525,1,"face","neutral","neutral"
"993",2,6,763,33,"congruent","Reward4",1,567,1,"face","neutral","neutral"
"994",2,6,763,34,"congruent","Reward2",1,534,1,"face","neutral","neutral"
"995",2,6,763,35,"incongruent","Reward4",1,609,1,"face","neutral","neutral"
"996",2,6,763,36,"congruent","Reward4",1,345,1,"face","neutral","neutral"
"997",2,6,763,37,"incongruent","Reward4",1,946,1,"face","neutral","neutral"
"998",2,6,763,38,"incongruent","Reward2",1,503,1,"face","neutral","neutral"
"999",2,6,763,39,"incongruent","Reward1",1,566,1,"face","neutral","neutral"
"1000",2,6,763,40,"incongruent","Reward4",1,375,1,"face","neutral","neutral"
"1001",2,6,763,41,"congruent","Reward4",0,521,1,"face","neutral","neutral"
"1002",2,6,763,42,"congruent","Reward1",1,565,1,"face","neutral","neutral"
"1003",2,6,763,43,"congruent","Reward1",1,448,1,"face","neutral","neutral"
"1004",2,6,763,44,"incongruent","Reward1",1,548,1,"face","neutral","neutral"
"1005",2,6,763,45,"incongruent","Reward2",1,351,1,"face","neutral","neutral"
"1006",2,6,763,46,"congruent","Reward4",1,364,1,"face","neutral","neutral"
"1007",2,6,763,47,"incongruent","Reward4",1,394,1,"face","neutral","neutral"
"1008",2,6,763,48,"incongruent","Reward1",1,627,1,"face","neutral","neutral"
"1009",2,6,763,49,"congruent","Reward4",1,717,1,"face","neutral","neutral"
"1010",2,6,763,50,"incongruent","Reward4",1,397,1,"face","neutral","neutral"
"1011",2,6,763,51,"incongruent","Reward2",1,425,1,"face","neutral","neutral"
"1012",2,6,763,52,"incongruent","Reward2",1,591,1,"face","neutral","neutral"
"1013",2,6,763,53,"incongruent","Reward1",1,348,1,"face","neutral","neutral"
"1014",2,6,763,54,"incongruent","Reward4",1,365,1,"face","neutral","neutral"
"1015",2,6,763,55,"congruent","Reward2",1,358,1,"face","neutral","neutral"
"1016",2,6,763,56,"congruent","Reward4",1,980,1,"face","neutral","neutral"
"1017",2,6,763,57,"congruent","Reward1",1,429,1,"face","neutral","neutral"
"1018",2,6,763,58,"incongruent","Reward4",1,413,1,"face","neutral","neutral"
"1019",2,6,763,59,"congruent","Reward2",1,585,1,"face","neutral","neutral"
"1020",2,6,763,60,"incongruent","Reward2",1,439,1,"face","neutral","neutral"
"1021",2,6,763,61,"incongruent","Reward2",1,580,1,"face","neutral","neutral"
"1022",2,6,763,62,"congruent","Reward2",1,340,1,"face","neutral","neutral"
"1023",2,6,763,63,"incongruent","Reward1",0,381,1,"face","neutral","neutral"
"1024",2,6,763,64,"incongruent","Reward1",1,685,1,"face","neutral","neutral"
"1025",2,6,763,65,"incongruent","Reward4",1,359,1,"face","neutral","neutral"
"1026",2,6,763,66,"incongruent","Reward1",1,491,1,"face","neutral","neutral"
"1027",2,6,763,67,"congruent","Reward1",1,1025,1,"face","neutral","neutral"
"1028",2,6,763,68,"congruent","Reward2",1,502,1,"face","neutral","neutral"
"1029",2,6,763,69,"congruent","Reward1",0,665,1,"face","neutral","neutral"
"1030",2,6,763,70,"congruent","Reward1",1,457,1,"face","neutral","neutral"
"1031",2,6,763,71,"congruent","Reward2",1,514,1,"face","neutral","neutral"
"1032",2,6,763,72,"congruent","Reward4",1,522,1,"face","neutral","neutral"
"1033",2,6,763,73,"congruent","Reward4",1,581,1,"face","neutral","neutral"
"1034",2,6,763,74,"congruent","Reward4",1,512,1,"face","neutral","neutral"
"1035",2,6,763,75,"congruent","Reward1",1,316,1,"face","neutral","neutral"
"1036",2,6,763,76,"incongruent","Reward4",1,369,1,"face","neutral","neutral"
"1037",2,6,763,77,"congruent","Reward2",1,365,1,"face","neutral","neutral"
"1038",2,6,763,78,"congruent","Reward4",1,425,1,"face","neutral","neutral"
"1039",2,6,763,79,"incongruent","Reward1",0,809,1,"face","neutral","neutral"
"1040",2,6,763,80,"incongruent","Reward4",1,469,1,"face","neutral","neutral"
"1041",2,6,763,81,"congruent","Reward2",1,576,1,"face","neutral","neutral"
"1042",2,6,763,82,"congruent","Reward1",1,444,1,"face","neutral","neutral"
"1043",2,6,763,83,"incongruent","Reward1",1,431,1,"face","neutral","neutral"
"1044",2,6,763,84,"incongruent","Reward4",1,415,1,"face","neutral","neutral"
"1045",2,6,763,85,"incongruent","Reward1",1,573,1,"face","neutral","neutral"
"1046",2,6,763,86,"incongruent","Reward1",1,686,1,"face","neutral","neutral"
"1047",2,6,763,87,"congruent","Reward4",1,594,1,"face","neutral","neutral"
"1048",2,6,763,88,"incongruent","Reward1",1,453,1,"face","neutral","neutral"
"1049",2,6,763,89,"congruent","Reward1",1,471,1,"face","neutral","neutral"
"1050",2,6,763,90,"incongruent","Reward2",1,367,1,"face","neutral","neutral"
"1051",2,6,763,91,"congruent","Reward1",1,439,1,"face","neutral","neutral"
"1052",2,6,763,92,"incongruent","Reward2",1,579,1,"face","neutral","neutral"
"1053",2,6,763,93,"incongruent","Reward1",1,595,1,"face","neutral","neutral"
"1054",2,6,763,94,"incongruent","Reward4",1,616,1,"face","neutral","neutral"
"1055",2,6,763,95,"incongruent","Reward2",0,483,1,"face","neutral","neutral"
"1056",2,6,763,96,"congruent","Reward4",0,478,1,"face","neutral","neutral"
"1057",2,7,763,1,"congruent","Reward2",1,587,2,"face","aversive","sad"
"1058",2,7,763,2,"incongruent","Reward2",1,325,2,"face","aversive","sad"
"1059",2,7,763,3,"congruent","Reward2",1,498,2,"face","aversive","sad"
"1060",2,7,763,4,"incongruent","Reward2",1,608,2,"face","aversive","sad"
"1061",2,7,763,5,"incongruent","Reward4",1,519,2,"face","aversive","sad"
"1062",2,7,763,6,"congruent","Reward2",1,685,2,"face","aversive","sad"
"1063",2,7,763,7,"congruent","Reward4",1,559,2,"face","aversive","sad"
"1064",2,7,763,8,"incongruent","Reward1",1,599,2,"face","aversive","sad"
"1065",2,7,763,9,"incongruent","Reward2",1,395,2,"face","aversive","sad"
"1066",2,7,763,10,"congruent","Reward1",1,560,2,"face","aversive","sad"
"1067",2,7,763,11,"congruent","Reward1",1,506,2,"face","aversive","sad"
"1068",2,7,763,12,"incongruent","Reward2",0,506,2,"face","aversive","sad"
"1069",2,7,763,13,"congruent","Reward1",1,355,2,"face","aversive","sad"
"1070",2,7,763,14,"congruent","Reward4",1,417,2,"face","aversive","sad"
"1071",2,7,763,15,"congruent","Reward2",1,383,2,"face","aversive","sad"
"1072",2,7,763,16,"incongruent","Reward4",1,381,2,"face","aversive","sad"
"1073",2,7,763,17,"incongruent","Reward2",1,498,2,"face","aversive","sad"
"1074",2,7,763,18,"incongruent","Reward4",1,444,2,"face","aversive","sad"
"1075",2,7,763,19,"congruent","Reward2",1,866,2,"face","aversive","sad"
"1076",2,7,763,20,"congruent","Reward4",1,377,2,"face","aversive","sad"
"1077",2,7,763,21,"congruent","Reward1",0,654,2,"face","aversive","sad"
"1078",2,7,763,22,"congruent","Reward1",1,420,2,"face","aversive","sad"
"1079",2,7,763,23,"congruent","Reward2",1,530,2,"face","aversive","sad"
"1080",2,7,763,24,"incongruent","Reward4",1,406,2,"face","aversive","sad"
"1081",2,7,763,25,"congruent","Reward4",1,579,2,"face","aversive","sad"
"1082",2,7,763,26,"congruent","Reward2",1,434,2,"face","aversive","sad"
"1083",2,7,763,27,"congruent","Reward1",1,434,2,"face","aversive","sad"
"1084",2,7,763,28,"incongruent","Reward2",1,367,2,"face","aversive","sad"
"1085",2,7,763,29,"incongruent","Reward2",1,348,2,"face","aversive","sad"
"1086",2,7,763,30,"incongruent","Reward1",0,335,2,"face","aversive","sad"
"1087",2,7,763,31,"congruent","Reward2",1,379,2,"face","aversive","sad"
"1088",2,7,763,32,"incongruent","Reward1",1,521,2,"face","aversive","sad"
"1089",2,7,763,33,"congruent","Reward4",1,481,2,"face","aversive","sad"
"1090",2,7,763,34,"congruent","Reward2",1,445,2,"face","aversive","sad"
"1091",2,7,763,35,"incongruent","Reward4",1,575,2,"face","aversive","sad"
"1092",2,7,763,36,"congruent","Reward4",1,341,2,"face","aversive","sad"
"1093",2,7,763,37,"incongruent","Reward4",1,366,2,"face","aversive","sad"
"1094",2,7,763,38,"incongruent","Reward2",1,455,2,"face","aversive","sad"
"1095",2,7,763,39,"incongruent","Reward1",1,365,2,"face","aversive","sad"
"1096",2,7,763,40,"incongruent","Reward4",1,522,2,"face","aversive","sad"
"1097",2,7,763,41,"congruent","Reward4",1,485,2,"face","aversive","sad"
"1098",2,7,763,42,"congruent","Reward1",1,543,2,"face","aversive","sad"
"1099",2,7,763,43,"congruent","Reward1",0,385,2,"face","aversive","sad"
"1100",2,7,763,44,"incongruent","Reward1",1,485,2,"face","aversive","sad"
"1101",2,7,763,45,"incongruent","Reward2",1,351,2,"face","aversive","sad"
"1102",2,7,763,46,"congruent","Reward4",1,385,2,"face","aversive","sad"
"1103",2,7,763,47,"incongruent","Reward4",1,398,2,"face","aversive","sad"
"1104",2,7,763,48,"incongruent","Reward1",1,525,2,"face","aversive","sad"
"1105",2,7,763,49,"congruent","Reward4",1,648,2,"face","aversive","sad"
"1106",2,7,763,50,"incongruent","Reward4",1,359,2,"face","aversive","sad"
"1107",2,7,763,51,"incongruent","Reward2",1,644,2,"face","aversive","sad"
"1108",2,7,763,52,"incongruent","Reward2",1,350,2,"face","aversive","sad"
"1109",2,7,763,53,"incongruent","Reward1",1,436,2,"face","aversive","sad"
"1110",2,7,763,54,"incongruent","Reward4",1,500,2,"face","aversive","sad"
"1111",2,7,763,55,"congruent","Reward2",1,456,2,"face","aversive","sad"
"1112",2,7,763,56,"congruent","Reward4",1,462,2,"face","aversive","sad"
"1113",2,7,763,57,"congruent","Reward1",1,392,2,"face","aversive","sad"
"1114",2,7,763,58,"incongruent","Reward4",0,506,2,"face","aversive","sad"
"1115",2,7,763,59,"congruent","Reward2",1,399,2,"face","aversive","sad"
"1116",2,7,763,60,"incongruent","Reward2",0,627,2,"face","aversive","sad"
"1117",2,7,763,61,"incongruent","Reward2",1,480,2,"face","aversive","sad"
"1118",2,7,763,62,"congruent","Reward2",1,388,2,"face","aversive","sad"
"1119",2,7,763,63,"incongruent","Reward1",1,380,2,"face","aversive","sad"
"1120",2,7,763,64,"incongruent","Reward1",1,363,2,"face","aversive","sad"
"1121",2,7,763,65,"incongruent","Reward4",1,384,2,"face","aversive","sad"
"1122",2,7,763,66,"incongruent","Reward1",0,918,2,"face","aversive","sad"
"1123",2,7,763,67,"congruent","Reward1",0,414,2,"face","aversive","sad"
"1124",2,7,763,68,"congruent","Reward2",0,0,2,"face","aversive","sad"
"1125",2,7,763,69,"congruent","Reward1",1,440,2,"face","aversive","sad"
"1126",2,7,763,70,"congruent","Reward1",1,572,2,"face","aversive","sad"
"1127",2,7,763,71,"congruent","Reward2",1,439,2,"face","aversive","sad"
"1128",2,7,763,72,"congruent","Reward4",0,598,2,"face","aversive","sad"
"1129",2,7,763,73,"congruent","Reward4",1,499,2,"face","aversive","sad"
"1130",2,7,763,74,"congruent","Reward4",0,548,2,"face","aversive","sad"
"1131",2,7,763,75,"congruent","Reward1",1,453,2,"face","aversive","sad"
"1132",2,7,763,76,"incongruent","Reward4",1,505,2,"face","aversive","sad"
"1133",2,7,763,77,"congruent","Reward2",0,992,2,"face","aversive","sad"
"1134",2,7,763,78,"congruent","Reward4",1,620,2,"face","aversive","sad"
"1135",2,7,763,79,"incongruent","Reward1",1,504,2,"face","aversive","sad"
"1136",2,7,763,80,"incongruent","Reward4",1,396,2,"face","aversive","sad"
"1137",2,7,763,81,"congruent","Reward2",1,539,2,"face","aversive","sad"
"1138",2,7,763,82,"congruent","Reward1",1,528,2,"face","aversive","sad"
"1139",2,7,763,83,"incongruent","Reward1",1,655,2,"face","aversive","sad"
"1140",2,7,763,84,"incongruent","Reward4",1,387,2,"face","aversive","sad"
"1141",2,7,763,85,"incongruent","Reward1",1,402,2,"face","aversive","sad"
"1142",2,7,763,86,"incongruent","Reward1",1,497,2,"face","aversive","sad"
"1143",2,7,763,87,"congruent","Reward4",1,1820,2,"face","aversive","sad"
"1144",2,7,763,88,"incongruent","Reward1",1,439,2,"face","aversive","sad"
"1145",2,7,763,89,"congruent","Reward1",1,725,2,"face","aversive","sad"
"1146",2,7,763,90,"incongruent","Reward2",1,505,2,"face","aversive","sad"
"1147",2,7,763,91,"congruent","Reward1",1,670,2,"face","aversive","sad"
"1148",2,7,763,92,"incongruent","Reward2",1,393,2,"face","aversive","sad"
"1149",2,7,763,93,"incongruent","Reward1",0,825,2,"face","aversive","sad"
"1150",2,7,763,94,"incongruent","Reward4",1,501,2,"face","aversive","sad"
"1151",2,7,763,95,"incongruent","Reward2",0,539,2,"face","aversive","sad"
"1152",2,7,763,96,"congruent","Reward4",0,465,2,"face","aversive","sad"
"1153",3,10,763,1,"incongruent","Reward2",1,611,2,"liquid","appetitive","juice"
"1154",3,10,763,2,"congruent","Reward1",0,828,2,"liquid","appetitive","juice"
"1155",3,10,763,3,"incongruent","Reward1",1,540,2,"liquid","appetitive","juice"
"1156",3,10,763,4,"congruent","Reward4",1,395,2,"liquid","appetitive","juice"
"1157",3,10,763,5,"congruent","Reward2",1,487,2,"liquid","appetitive","juice"
"1158",3,10,763,6,"incongruent","Reward4",1,523,2,"liquid","appetitive","juice"
"1159",3,10,763,7,"incongruent","Reward1",1,923,2,"liquid","appetitive","juice"
"1160",3,10,763,8,"incongruent","Reward4",1,598,2,"liquid","appetitive","juice"
"1161",3,10,763,9,"incongruent","Reward1",0,852,2,"liquid","appetitive","juice"
"1162",3,10,763,10,"incongruent","Reward2",1,520,2,"liquid","appetitive","juice"
"1163",3,10,763,11,"congruent","Reward4",1,453,2,"liquid","appetitive","juice"
"1164",3,10,763,12,"incongruent","Reward4",1,609,2,"liquid","appetitive","juice"
"1165",3,10,763,13,"incongruent","Reward2",0,550,2,"liquid","appetitive","juice"
"1166",3,10,763,14,"incongruent","Reward4",1,375,2,"liquid","appetitive","juice"
"1167",3,10,763,15,"incongruent","Reward1",1,678,2,"liquid","appetitive","juice"
"1168",3,10,763,16,"congruent","Reward2",1,707,2,"liquid","appetitive","juice"
"1169",3,10,763,17,"congruent","Reward4",1,332,2,"liquid","appetitive","juice"
"1170",3,10,763,18,"congruent","Reward2",1,505,2,"liquid","appetitive","juice"
"1171",3,10,763,19,"congruent","Reward1",1,526,2,"liquid","appetitive","juice"
"1172",3,10,763,20,"congruent","Reward4",1,620,2,"liquid","appetitive","juice"
"1173",3,10,763,21,"congruent","Reward1",1,528,2,"liquid","appetitive","juice"
"1174",3,10,763,22,"congruent","Reward4",1,567,2,"liquid","appetitive","juice"
"1175",3,10,763,23,"congruent","Reward4",1,356,2,"liquid","appetitive","juice"
"1176",3,10,763,24,"congruent","Reward2",1,667,2,"liquid","appetitive","juice"
"1177",3,10,763,25,"congruent","Reward4",1,548,2,"liquid","appetitive","juice"
"1178",3,10,763,26,"congruent","Reward2",1,458,2,"liquid","appetitive","juice"
"1179",3,10,763,27,"incongruent","Reward1",1,752,2,"liquid","appetitive","juice"
"1180",3,10,763,28,"congruent","Reward2",1,742,2,"liquid","appetitive","juice"
"1181",3,10,763,29,"congruent","Reward2",0,1096,2,"liquid","appetitive","juice"
"1182",3,10,763,30,"incongruent","Reward2",1,386,2,"liquid","appetitive","juice"
"1183",3,10,763,31,"incongruent","Reward4",0,733,2,"liquid","appetitive","juice"
"1184",3,10,763,32,"incongruent","Reward4",1,579,2,"liquid","appetitive","juice"
"1185",3,10,763,33,"incongruent","Reward2",0,613,2,"liquid","appetitive","juice"
"1186",3,10,763,34,"congruent","Reward1",1,557,2,"liquid","appetitive","juice"
"1187",3,10,763,35,"incongruent","Reward4",1,538,2,"liquid","appetitive","juice"
"1188",3,10,763,36,"congruent","Reward1",0,886,2,"liquid","appetitive","juice"
"1189",3,10,763,37,"congruent","Reward4",1,554,2,"liquid","appetitive","juice"
"1190",3,10,763,38,"incongruent","Reward1",0,407,2,"liquid","appetitive","juice"
"1191",3,10,763,39,"incongruent","Reward2",0,480,2,"liquid","appetitive","juice"
"1192",3,10,763,40,"incongruent","Reward4",1,406,2,"liquid","appetitive","juice"
"1193",3,10,763,41,"congruent","Reward2",1,851,2,"liquid","appetitive","juice"
"1194",3,10,763,42,"congruent","Reward1",1,713,2,"liquid","appetitive","juice"
"1195",3,10,763,43,"incongruent","Reward2",1,677,2,"liquid","appetitive","juice"
"1196",3,10,763,44,"incongruent","Reward4",1,607,2,"liquid","appetitive","juice"
"1197",3,10,763,45,"congruent","Reward2",0,984,2,"liquid","appetitive","juice"
"1198",3,10,763,46,"congruent","Reward1",1,934,2,"liquid","appetitive","juice"
"1199",3,10,763,47,"incongruent","Reward2",1,565,2,"liquid","appetitive","juice"
"1200",3,10,763,48,"congruent","Reward1",1,956,2,"liquid","appetitive","juice"
"1201",3,10,763,49,"incongruent","Reward4",1,458,2,"liquid","appetitive","juice"
"1202",3,10,763,50,"congruent","Reward4",1,774,2,"liquid","appetitive","juice"
"1203",3,10,763,51,"congruent","Reward1",1,408,2,"liquid","appetitive","juice"
"1204",3,10,763,52,"incongruent","Reward1",1,344,2,"liquid","appetitive","juice"
"1205",3,10,763,53,"congruent","Reward2",0,686,2,"liquid","appetitive","juice"
"1206",3,10,763,54,"incongruent","Reward1",0,201,2,"liquid","appetitive","juice"
"1207",3,10,763,55,"incongruent","Reward2",1,482,2,"liquid","appetitive","juice"
"1208",3,10,763,56,"incongruent","Reward2",1,389,2,"liquid","appetitive","juice"
"1209",3,10,763,57,"incongruent","Reward1",0,1672,2,"liquid","appetitive","juice"
"1210",3,10,763,58,"incongruent","Reward2",1,441,2,"liquid","appetitive","juice"
"1211",3,10,763,59,"congruent","Reward4",1,472,2,"liquid","appetitive","juice"
"1212",3,10,763,60,"congruent","Reward1",1,868,2,"liquid","appetitive","juice"
"1213",3,10,763,61,"incongruent","Reward2",0,895,2,"liquid","appetitive","juice"
"1214",3,10,763,62,"incongruent","Reward2",1,764,2,"liquid","appetitive","juice"
"1215",3,10,763,63,"incongruent","Reward2",0,669,2,"liquid","appetitive","juice"
"1216",3,10,763,64,"incongruent","Reward4",1,395,2,"liquid","appetitive","juice"
"1217",3,10,763,65,"incongruent","Reward4",1,511,2,"liquid","appetitive","juice"
"1218",3,10,763,66,"incongruent","Reward4",1,528,2,"liquid","appetitive","juice"
"1219",3,10,763,67,"incongruent","Reward1",1,542,2,"liquid","appetitive","juice"
"1220",3,10,763,68,"incongruent","Reward2",0,995,2,"liquid","appetitive","juice"
"1221",3,10,763,69,"congruent","Reward1",1,392,2,"liquid","appetitive","juice"
"1222",3,10,763,70,"congruent","Reward2",1,713,2,"liquid","appetitive","juice"
"1223",3,10,763,71,"congruent","Reward4",1,571,2,"liquid","appetitive","juice"
"1224",3,10,763,72,"incongruent","Reward4",1,693,2,"liquid","appetitive","juice"
"1225",3,10,763,73,"incongruent","Reward4",1,685,2,"liquid","appetitive","juice"
"1226",3,10,763,74,"congruent","Reward2",1,380,2,"liquid","appetitive","juice"
"1227",3,10,763,75,"congruent","Reward4",1,626,2,"liquid","appetitive","juice"
"1228",3,10,763,76,"incongruent","Reward2",1,1055,2,"liquid","appetitive","juice"
"1229",3,10,763,77,"congruent","Reward4",1,224,2,"liquid","appetitive","juice"
"1230",3,10,763,78,"congruent","Reward4",1,554,2,"liquid","appetitive","juice"
"1231",3,10,763,79,"incongruent","Reward4",1,586,2,"liquid","appetitive","juice"
"1232",3,10,763,80,"congruent","Reward1",1,322,2,"liquid","appetitive","juice"
"1233",3,10,763,81,"congruent","Reward4",0,1009,2,"liquid","appetitive","juice"
"1234",3,10,763,82,"congruent","Reward1",1,959,2,"liquid","appetitive","juice"
"1235",3,10,763,83,"congruent","Reward1",1,369,2,"liquid","appetitive","juice"
"1236",3,10,763,84,"congruent","Reward2",0,952,2,"liquid","appetitive","juice"
"1237",3,10,763,85,"incongruent","Reward1",0,317,2,"liquid","appetitive","juice"
"1238",3,10,763,86,"incongruent","Reward1",0,0,2,"liquid","appetitive","juice"
"1239",3,10,763,87,"incongruent","Reward1",0,253,2,"liquid","appetitive","juice"
"1240",3,10,763,88,"congruent","Reward2",1,377,2,"liquid","appetitive","juice"
"1241",3,10,763,89,"congruent","Reward1",1,382,2,"liquid","appetitive","juice"
"1242",3,10,763,90,"incongruent","Reward1",0,1286,2,"liquid","appetitive","juice"
"1243",3,10,763,91,"congruent","Reward2",1,579,2,"liquid","appetitive","juice"
"1244",3,10,763,92,"congruent","Reward1",0,880,2,"liquid","appetitive","juice"
"1245",3,10,763,93,"incongruent","Reward1",0,366,2,"liquid","appetitive","juice"
"1246",3,10,763,94,"congruent","Reward4",1,563,2,"liquid","appetitive","juice"
"1247",3,10,763,95,"congruent","Reward2",0,366,2,"liquid","appetitive","juice"
"1248",3,10,763,96,"incongruent","Reward1",0,0,2,"liquid","appetitive","juice"
"1249",3,6,531,1,"incongruent","Reward2",1,687,1,"liquid","neutral","neutral"
"1250",3,6,531,2,"congruent","Reward2",1,538,1,"liquid","neutral","neutral"
"1251",3,6,531,3,"incongruent","Reward2",1,409,1,"liquid","neutral","neutral"
"1252",3,6,531,4,"congruent","Reward2",1,458,1,"liquid","neutral","neutral"
"1253",3,6,531,5,"congruent","Reward4",1,383,1,"liquid","neutral","neutral"
"1254",3,6,531,6,"incongruent","Reward2",1,440,1,"liquid","neutral","neutral"
"1255",3,6,531,7,"incongruent","Reward4",1,427,1,"liquid","neutral","neutral"
"1256",3,6,531,8,"congruent","Reward1",1,1834,1,"liquid","neutral","neutral"
"1257",3,6,531,9,"congruent","Reward2",1,516,1,"liquid","neutral","neutral"
"1258",3,6,531,10,"incongruent","Reward1",1,628,1,"liquid","neutral","neutral"
"1259",3,6,531,11,"incongruent","Reward1",0,685,1,"liquid","neutral","neutral"
"1260",3,6,531,12,"congruent","Reward2",1,408,1,"liquid","neutral","neutral"
"1261",3,6,531,13,"incongruent","Reward1",1,394,1,"liquid","neutral","neutral"
"1262",3,6,531,14,"incongruent","Reward4",1,335,1,"liquid","neutral","neutral"
"1263",3,6,531,15,"incongruent","Reward2",0,419,1,"liquid","neutral","neutral"
"1264",3,6,531,16,"congruent","Reward4",1,444,1,"liquid","neutral","neutral"
"1265",3,6,531,17,"congruent","Reward2",1,517,1,"liquid","neutral","neutral"
"1266",3,6,531,18,"congruent","Reward4",1,430,1,"liquid","neutral","neutral"
"1267",3,6,531,19,"incongruent","Reward2",1,405,1,"liquid","neutral","neutral"
"1268",3,6,531,20,"incongruent","Reward4",1,681,1,"liquid","neutral","neutral"
"1269",3,6,531,21,"incongruent","Reward1",1,442,1,"liquid","neutral","neutral"
"1270",3,6,531,22,"incongruent","Reward1",1,519,1,"liquid","neutral","neutral"
"1271",3,6,531,23,"incongruent","Reward2",1,381,1,"liquid","neutral","neutral"
"1272",3,6,531,24,"congruent","Reward4",1,414,1,"liquid","neutral","neutral"
"1273",3,6,531,25,"incongruent","Reward4",1,388,1,"liquid","neutral","neutral"
"1274",3,6,531,26,"incongruent","Reward2",0,963,1,"liquid","neutral","neutral"
"1275",3,6,531,27,"incongruent","Reward1",1,527,1,"liquid","neutral","neutral"
"1276",3,6,531,28,"congruent","Reward2",1,414,1,"liquid","neutral","neutral"
